#AccFullScale=8g, GyrFullScale=2000dps, SamplingRate=100Hz, PacketType=RAW, Activity=Walking, Position=Upper arm
#timeStamp,packetCounter, AccX,AccY,AccZ, GyrX,GyrY,GyrZ, MagX,MagY,MagZ 
2000,0,-321,-4602,947,-298,1196,-688,-22,50,8
2010,1,-335,-4577,1085,-322,1436,-729,-22,54,8
2020,2,-348,-4654,964,-399,1599,-746,-22,54,8
2030,3,-388,-4793,883,-426,1780,-782,-24,34,10
2040,4,-539,-4901,841,-442,1970,-828,-24,34,10
2050,5,-630,-4926,821,-467,2112,-869,-25,33,11
2060,6,-859,-4927,821,-515,2132,-895,-25,33,11
2070,7,-1021,-4834,922,-575,2053,-931,-20,36,12
2080,8,-1054,-4482,1048,-643,1878,-1002,-20,36,12
2090,9,-894,-3959,1327,-769,1614,-1088,-19,43,9
2100,10,-703,-3588,1396,-944,1294,-1185,-19,43,9
2110,11,-493,-3414,1175,-1045,961,-1289,-18,42,14
2120,12,-246,-3424,921,-1013,692,-1370,-18,42,14
2130,13,-32,-3407,701,-900,474,-1422,-25,39,15
2140,14,171,-3549,526,-763,289,-1442,-25,39,15
2150,15,362,-3712,407,-624,133,-1396,-28,44,18
2160,16,588,-3832,342,-475,98,-1326,-28,44,18
2170,17,822,-3946,293,-352,180,-1244,-29,43,19
2180,18,1027,-4035,325,-244,364,-1191,-29,43,19
2190,19,1166,-4088,325,-183,631,-1146,-27,37,17
2200,20,1226,-4187,382,-164,951,-1114,-27,37,17
2210,21,1195,-4261,378,-170,1295,-1089,-36,36,18
2220,22,1102,-4340,336,-179,1623,-1069,-36,36,18
2230,23,949,-4400,291,-165,1903,-1051,-34,38,18
2240,24,712,-4436,291,-141,2148,-1039,-34,38,18
2250,25,462,-4421,294,-116,2315,-1038,-37,37,19
2260,26,258,-4368,348,-111,2416,-1044,-37,37,19
2270,27,32,-4351,315,-117,2477,-1046,-28,36,18
2280,28,-134,-4272,297,-127,2504,-1056,-28,36,18
2290,29,-261,-4231,307,-149,2506,-1063,-33,31,17
2300,30,-366,-4189,280,-169,2485,-1063,-33,31,17
2310,31,-479,-4130,305,-176,2446,-1060,-34,32,20
2320,32,-603,-4053,312,-173,2406,-1061,-34,32,20
2330,33,-656,-3982,370,-174,2339,-1054,-27,37,11
2340,34,-727,-3948,381,-183,2281,-1041,-27,37,11
2350,35,-754,-3908,402,-168,2201,-1027,-30,34,18
2360,36,-800,-3811,424,-149,2107,-1011,-30,34,18
2370,37,-844,-3771,503,-139,2010,-987,-23,35,17
2380,38,-921,-3738,568,-149,1895,-953,-23,35,17
2390,39,-923,-3695,599,-163,1783,-919,-22,36,10
2400,40,-972,-3670,644,-171,1667,-890,-22,36,10
2410,41,-951,-3709,707,-191,1547,-855,-30,36,10
2420,42,-972,-3717,718,-220,1409,-808,-30,36,10
2430,43,-897,-3753,820,-240,1271,-756,-25,35,9
2440,44,-877,-3841,872,-292,1156,-703,-25,35,9
2450,45,-851,-3911,870,-345,1007,-655,-26,30,12
2460,46,-764,-3944,865,-361,857,-617,-26,30,12
2470,47,-795,-3948,866,-375,738,-578,-23,35,11
2480,48,-663,-3967,920,-392,641,-553,-23,35,11
2490,49,-564,-3965,914,-395,539,-518,-31,35,15
2500,50,-517,-4064,910,-412,455,-470,-31,35,15
2510,51,-432,-4225,849,-411,359,-416,-30,36,10
2520,52,-342,-4340,793,-401,284,-359,-30,36,10
2530,53,-321,-4384,806,-391,199,-313,-31,33,7
2540,54,-303,-4486,719,-391,69,-252,-31,33,7
2550,55,-273,-4691,630,-397,-80,-177,-33,35,13
2560,56,-202,-4999,495,-377,-241,-82,-33,35,13
2570,57,-83,-5176,414,-322,-359,13,-34,38,16
2580,58,79,-5116,437,-238,-419,83,-34,38,16
2590,59,309,-4981,618,-184,-422,135,-28,42,16
2600,60,479,-4969,703,-182,-370,206,-28,42,16
2610,61,528,-5210,663,-205,-329,308,-32,36,16
2620,62,440,-5395,422,-205,-384,416,-32,36,16
2630,63,291,-5419,295,-162,-549,503,-36,38,18
2640,64,157,-5310,180,-104,-813,563,-36,38,18
2650,65,136,-5101,91,-28,-1065,589,-32,38,22
2660,66,179,-4848,80,63,-1267,613,-32,38,22
2670,67,300,-4536,200,156,-1410,634,-35,41,17
2680,68,377,-4289,209,236,-1498,642,-35,41,17
2690,69,411,-4206,169,312,-1531,662,-36,38,18
2700,70,413,-4207,96,421,-1546,710,-36,38,18
2710,71,342,-4265,50,543,-1587,781,-40,32,18
2720,72,260,-4321,-69,660,-1696,865,-40,32,18
2730,73,144,-4490,-159,761,-1860,948,-38,38,18
2740,74,161,-4554,-213,867,-2009,1047,-38,38,18
2750,75,91,-4612,-212,951,-2101,1147,-36,36,26
2760,76,99,-4608,-127,1003,-2170,1235,-36,36,26
2770,77,58,-4518,7,1037,-2201,1315,-42,34,18
2780,78,185,-4487,145,1048,-2161,1372,-42,34,18
2790,79,458,-4488,264,1029,-2041,1414,-45,31,17
2800,80,592,-4439,283,1029,-1868,1435,-45,31,17
2810,81,714,-4377,343,1040,-1677,1442,-39,33,19
2820,82,732,-4258,370,1065,-1461,1442,-39,33,19
2830,83,768,-4109,488,1055,-1221,1425,-42,36,16
2840,84,654,-3998,455,1038,-972,1391,-42,36,16
2850,85,258,-3904,379,987,-803,1364,-40,38,16
2860,86,-107,-3823,312,968,-752,1321,-40,38,16
2870,87,-377,-3725,296,915,-658,1245,-38,34,16
2880,88,-528,-3633,202,887,-585,1182,-38,34,16
2890,89,-555,-3524,223,868,-616,1107,-38,34,14
2900,90,-414,-3458,211,853,-712,1044,-38,34,14
2910,91,-262,-3401,273,832,-791,998,-36,40,8
2920,92,-136,-3413,299,818,-829,949,-36,40,8
2930,93,-175,-3367,380,808,-804,912,-33,39,9
2940,94,-173,-3332,395,820,-792,863,-33,39,9
2950,95,-122,-3293,424,824,-694,826,-39,39,13
2960,96,-153,-3273,460,812,-568,796,-39,39,13
2970,97,-162,-3280,506,787,-463,760,-37,35,9
2980,98,-158,-3250,546,739,-348,716,-37,35,9
2990,99,-247,-3285,584,682,-248,680,-35,31,9
3000,100,-276,-3353,560,623,-155,646,-35,31,9
3010,101,-312,-3363,604,580,-70,602,-32,32,8
3020,102,-308,-3465,590,528,15,568,-32,32,8
3030,103,-378,-3543,512,478,48,541,-30,38,2
3040,104,-374,-3469,510,500,115,461,-30,38,2
3050,105,-464,-3567,611,399,157,424,-31,33,7
3060,106,-499,-3649,548,384,252,348,-31,33,7
3070,107,-611,-3749,630,338,264,279,-27,33,3
3080,108,-736,-3813,643,307,292,197,-27,33,3
3090,109,-796,-3879,713,262,271,110,-25,35,1
3100,110,-742,-3864,759,223,202,16,-25,35,1
3110,111,-562,-3768,894,165,163,-91,-28,40,4
3120,112,-313,-3801,1032,66,201,-201,-28,40,4
3130,113,-127,-4084,1128,-24,316,-305,-23,39,-1
3140,114,-105,-4319,1003,-61,485,-412,-23,39,-1
3150,115,-114,-4495,1028,-105,709,-529,-31,41,-5
3160,116,-130,-4649,1072,-188,886,-609,-31,41,-5
3170,117,-154,-4844,1167,-261,1000,-636,-28,36,-2
3180,118,-243,-5118,1221,-351,1143,-642,-28,36,-2
3190,119,-463,-5443,1117,-417,1295,-651,-22,36,-2
3200,120,-825,-5472,1096,-447,1365,-690,-22,36,-2
3210,121,-964,-5383,1270,-519,1331,-757,-23,43,1
3220,122,-995,-5070,1317,-670,1251,-821,-23,43,1
3230,123,-794,-4529,1523,-852,1149,-881,-26,38,4
3240,124,-591,-4119,1644,-1075,972,-918,-26,38,4
3250,125,-421,-3750,1613,-1216,677,-959,-26,42,6
3260,126,-266,-3507,1606,-1260,358,-1027,-26,42,6
3270,127,-162,-3425,1404,-1232,72,-1117,-30,44,2
3280,128,1,-3421,1188,-1124,-144,-1187,-30,44,2
3290,129,170,-3493,906,-954,-266,-1206,-26,48,10
3300,130,336,-3523,655,-763,-271,-1167,-26,48,10
3310,131,475,-3539,600,-592,-223,-1076,-30,50,8
3320,132,514,-3505,586,-498,-139,-997,-30,50,8
3330,133,514,-3569,614,-470,-5,-972,-32,46,6
3340,134,596,-3655,617,-471,160,-998,-32,46,6
3350,135,581,-3764,574,-497,321,-1030,-35,43,13
3360,136,537,-3864,571,-521,480,-1065,-35,43,13
3370,137,440,-3924,508,-535,617,-1079,-37,49,11
3380,138,354,-4034,471,-561,736,-1065,-37,49,11
3390,139,281,-4109,462,-584,855,-1049,-40,50,8
3400,140,146,-4211,423,-588,947,-1033,-40,50,8
3410,141,70,-4260,484,-592,1032,-1007,-37,51,11
3420,142,26,-4266,616,-591,1130,-986,-37,51,11
3430,143,-22,-4276,672,-621,1239,-960,-45,49,15
3440,144,-79,-4251,668,-658,1344,-930,-45,49,15
3450,145,-185,-4220,650,-674,1416,-909,-43,49,15
3460,146,-233,-4177,607,-680,1455,-899,-43,49,15
3470,147,-386,-4148,554,-676,1448,-906,-44,54,16
3480,148,-572,-4112,545,-614,1403,-922,-44,54,16
3490,149,-652,-3990,635,-527,1339,-943,-49,53,11
3500,150,-710,-3883,764,-461,1284,-956,-49,53,11
3510,151,-900,-3830,717,-408,1142,-954,-44,58,14
3520,152,-899,-3843,744,-330,975,-942,-44,58,14
3530,153,-1069,-3833,684,-263,745,-928,-40,50,20
3540,154,-1071,-3783,748,-215,498,-921,-40,50,20
3550,155,-1169,-3769,657,-182,199,-923,-36,50,16
3560,156,-1118,-3762,670,-164,-117,-937,-36,50,16
3570,157,-994,-3787,653,-169,-381,-937,-45,57,13
3580,158,-680,-3770,757,-165,-622,-934,-45,57,13
3590,159,-483,-3758,643,-157,-704,-904,-52,50,14
3600,160,-217,-3809,683,-154,-715,-857,-52,50,14
3610,161,-86,-3847,621,-130,-694,-793,-52,52,14
3620,162,-26,-3862,535,-107,-627,-721,-52,52,14
3630,163,41,-3875,470,-68,-570,-658,-55,49,19
3640,164,92,-3895,480,-29,-515,-587,-55,49,19
3650,165,42,-3930,439,2,-439,-507,-62,48,20
3660,166,82,-3999,417,20,-392,-415,-62,48,20
3670,167,81,-4114,374,26,-375,-313,-62,52,20
3680,168,73,-4256,319,14,-369,-209,-62,52,20
3690,169,90,-4435,256,-2,-404,-106,-63,51,19
3700,170,100,-4597,174,-13,-481,9,-63,51,19
3710,171,104,-4843,167,-19,-552,141,-61,51,21
3720,172,193,-5129,92,-10,-629,285,-61,51,21
3730,173,243,-5250,107,25,-677,413,-63,53,23
3740,174,284,-5182,220,62,-690,498,-63,53,23
3750,175,349,-5146,360,63,-665,559,-60,56,26
3760,176,404,-5277,440,28,-623,621,-60,56,26
3770,177,374,-5464,301,22,-602,683,-62,54,22
3780,178,230,-5455,239,59,-656,729,-62,54,22
3790,179,76,-5290,273,89,-801,749,-57,55,23
3800,180,-45,-5101,249,111,-1008,745,-57,55,23
3810,181,-121,-4895,214,149,-1226,732,-55,57,21
3820,182,-139,-4615,171,216,-1431,702,-55,57,21
3830,183,-99,-4332,225,286,-1584,660,-56,60,28
3840,184,-50,-4160,118,348,-1701,629,-56,60,28
3850,185,-55,-4131,23,423,-1794,619,-60,60,22
3860,186,-36,-4237,-198,536,-1890,635,-60,60,22
3870,187,-124,-4331,-342,673,-2029,679,-55,55,27
3880,188,-210,-4454,-488,824,-2230,742,-55,55,27
3890,189,-330,-4602,-555,948,-2426,808,-54,56,26
3900,190,-362,-4746,-655,1045,-2595,893,-54,56,26
3910,191,-386,-4924,-678,1122,-2738,981,-58,66,22
3920,192,-295,-5052,-623,1173,-2840,1064,-58,66,22
3930,193,-145,-5181,-538,1204,-2873,1132,-53,63,23
3940,194,19,-5223,-381,1230,-2831,1201,-53,63,23
3950,195,323,-5134,-158,1238,-2690,1253,-53,63,29
3960,196,512,-4953,-46,1231,-2478,1286,-53,63,29
3970,197,620,-4783,54,1215,-2183,1311,-54,62,22
3980,198,684,-4540,73,1215,-1925,1326,-54,62,22
3990,199,634,-4288,122,1213,-1649,1321,-52,58,22
4000,200,502,-4055,107,1202,-1401,1315,-52,58,22
4010,201,187,-3846,118,1158,-1270,1297,-55,61,17
4020,202,-45,-3677,101,1141,-1233,1249,-55,61,17
4030,203,-227,-3554,118,1107,-1261,1183,-47,65,21
4040,204,-305,-3475,172,1069,-1331,1104,-47,65,21
4050,205,-394,-3426,74,1057,-1450,1029,-43,61,19
4060,206,-342,-3410,38,1067,-1569,945,-43,61,19
4070,207,-206,-3343,51,1091,-1663,873,-48,58,12
4080,208,-59,-3291,82,1117,-1672,826,-48,58,12
4090,209,63,-3238,154,1134,-1641,796,-32,60,12
4100,210,192,-3258,240,1136,-1576,779,-32,60,12
4110,211,272,-3277,265,1132,-1454,771,-37,55,11
4120,212,373,-3279,317,1116,-1276,779,-37,55,11
4130,213,416,-3329,402,1077,-1086,794,-34,58,8
4140,214,439,-3357,459,1022,-863,808,-34,58,8
4150,215,447,-3405,449,949,-634,826,-35,57,5
4160,216,424,-3318,506,908,-361,814,-35,57,5
4170,217,337,-3292,691,807,-45,779,-39,57,5
4180,218,218,-3385,658,680,212,754,-39,57,5
4190,219,77,-3354,560,667,397,695,-33,53,1
4200,220,-71,-3322,725,623,592,612,-33,53,1
4210,221,-219,-3414,794,514,692,544,-37,53,3
4220,222,-280,-3676,837,371,647,514,-37,53,3
4230,223,-376,-3906,690,311,603,481,-23,51,-5
4240,224,-332,-4003,777,292,590,420,-23,51,-5
4250,225,-447,-3964,924,220,614,311,-28,50,0
4260,226,-480,-3984,1120,135,647,187,-28,50,0
4270,227,-628,-4011,1281,58,671,114,-19,51,-5
4280,228,-739,-4210,1451,-30,619,77,-19,51,-5
4290,229,-799,-4460,1485,-145,541,31,-26,48,-6
4300,230,-848,-4511,1395,-245,492,-95,-26,48,-6
4310,231,-841,-4339,1527,-359,466,-233,-20,46,-8
4320,232,-776,-4206,1531,-526,388,-330,-20,46,-8
4330,233,-672,-4174,1591,-659,304,-398,-19,47,-3
4340,234,-594,-4375,1488,-761,272,-436,-19,47,-3
4350,235,-574,-4642,1404,-773,247,-460,-15,49,-1
4360,236,-627,-4771,1366,-727,188,-499,-15,49,-1
4370,237,-644,-4718,1463,-711,130,-542,-18,44,-4
4380,238,-568,-4498,1528,-751,115,-595,-18,44,-4
4390,239,-328,-4170,1659,-841,100,-665,-15,53,-3
4400,240,8,-3903,1710,-969,111,-727,-15,53,-3
4410,241,279,-3785,1667,-1053,129,-751,-16,52,4
4420,242,457,-3689,1567,-1076,148,-765,-16,52,4
4430,243,465,-3632,1465,-1044,160,-785,-19,53,5
4440,244,439,-3554,1358,-1023,184,-818,-19,53,5
4450,245,382,-3554,1255,-1038,176,-868,-26,52,4
4460,246,369,-3611,1169,-1052,151,-917,-26,52,4
4470,247,336,-3644,1014,-1035,144,-959,-20,56,8
4480,248,378,-3667,962,-986,164,-994,-20,56,8
4490,249,480,-3703,953,-943,235,-1018,-24,58,10
4500,250,483,-3736,874,-908,366,-1037,-24,58,10
4510,251,550,-3807,859,-895,527,-1056,-28,54,14
4520,252,506,-3915,716,-902,720,-1066,-28,54,14
4530,253,429,-4020,658,-914,883,-1083,-27,55,15
4540,254,260,-4116,577,-919,1018,-1103,-27,55,15
4550,255,89,-4190,580,-930,1126,-1125,-29,57,21
4560,0,-82,-4227,577,-960,1192,-1133,-29,57,21
4570,1,-242,-4289,601,-979,1223,-1140,-35,61,15
4580,2,-342,-4305,653,-983,1228,-1139,-35,61,15
4590,3,-320,-4326,733,-971,1216,-1148,-33,55,21
4600,4,-317,-4267,765,-964,1202,-1152,-33,55,21
4610,5,-336,-4223,842,-935,1195,-1152,-33,55,25
4620,6,-374,-4095,799,-888,1155,-1145,-33,55,25
4630,7,-402,-3977,829,-845,1107,-1147,-35,55,23
4640,8,-374,-3863,798,-794,1032,-1159,-35,55,23
4650,9,-394,-3755,749,-746,952,-1183,-36,58,22
4660,10,-384,-3746,701,-699,856,-1200,-36,58,22
4670,11,-371,-3743,636,-640,770,-1208,-42,58,22
4680,12,-479,-3751,585,-564,660,-1207,-42,58,22
4690,13,-437,-3786,578,-481,587,-1197,-43,57,29
4700,14,-413,-3839,525,-373,517,-1163,-43,57,29
4710,15,-392,-3865,468,-278,399,-1141,-36,58,28
4720,16,-269,-3826,603,-189,273,-1105,-36,58,28
4730,17,-360,-3835,630,-156,98,-1069,-48,58,30
4740,18,-244,-3813,569,-168,-70,-1057,-48,58,30
4750,19,-129,-3901,539,-197,-254,-1041,-46,54,28
4760,20,-147,-3897,367,-228,-297,-1019,-46,54,28
4770,21,4,-3954,469,-261,-338,-984,-49,53,29
4780,22,146,-4087,494,-280,-249,-905,-49,53,29
4790,23,274,-4220,420,-269,-152,-817,-52,56,26
4800,24,338,-4315,363,-242,-102,-732,-52,56,26
4810,25,315,-4391,285,-218,-22,-631,-56,56,26
4820,26,307,-4468,290,-193,39,-516,-56,56,26
4830,27,305,-4574,285,-178,112,-389,-54,48,30
4840,28,278,-4725,245,-175,151,-257,-54,48,30
4850,29,306,-4865,191,-154,157,-118,-55,49,25
4860,30,267,-5011,190,-139,111,16,-55,49,25
4870,31,217,-5149,127,-129,25,137,-55,51,29
4880,32,187,-5136,108,-89,-85,227,-55,51,29
4890,33,147,-5038,250,-57,-182,280,-51,47,33
4900,34,250,-5121,311,-74,-262,349,-51,47,33
4910,35,333,-5283,255,-91,-361,413,-48,42,28
4920,36,338,-5336,153,-55,-499,472,-48,42,28
4930,37,336,-5216,108,6,-663,517,-52,52,26
4940,38,326,-5100,149,65,-815,565,-52,52,26
4950,39,317,-4975,126,144,-967,609,-51,47,33
4960,40,334,-4826,151,265,-1109,637,-51,47,33
4970,41,312,-4578,182,384,-1193,659,-46,44,28
4980,42,285,-4369,164,488,-1237,658,-46,44,28
4990,43,268,-4222,93,573,-1262,660,-42,42,26
5000,44,157,-4219,-27,654,-1317,687,-42,42,26
5010,45,27,-4236,-166,738,-1454,731,-51,43,29
5020,46,-145,-4278,-247,833,-1656,773,-51,43,29
5030,47,-248,-4341,-308,896,-1916,825,-48,42,28
5040,48,-344,-4476,-471,949,-2212,884,-48,42,28
5050,49,-314,-4576,-507,1019,-2490,948,-44,42,34
5060,50,-239,-4677,-484,1068,-2685,1028,-44,42,34
5070,51,1,-4765,-395,1094,-2819,1124,-45,39,33
5080,52,270,-4853,-283,1133,-2823,1222,-45,39,33
5090,53,558,-4844,-82,1205,-2672,1277,-48,36,32
5100,54,791,-4685,70,1265,-2411,1291,-48,36,32
5110,55,903,-4485,162,1268,-2163,1289,-49,35,25
5120,56,909,-4306,212,1256,-1825,1283,-49,35,25
5130,57,786,-4085,351,1255,-1498,1281,-42,38,26
5140,58,695,-3861,402,1237,-1208,1242,-42,38,26
5150,59,527,-3697,288,1196,-1017,1190,-44,38,28
5160,60,215,-3579,182,1122,-922,1141,-44,38,28
5170,61,4,-3598,26,1087,-879,1093,-42,30,28
5180,62,-65,-3632,-22,1076,-856,1056,-42,30,28
5190,63,-265,-3643,-92,1081,-910,1014,-43,33,29
5200,64,-319,-3688,-86,1085,-953,984,-43,33,29
5210,65,-373,-3698,-136,1092,-1007,957,-44,36,26
5220,66,-383,-3698,-152,1077,-1051,941,-44,36,26
5230,67,-381,-3685,-63,1070,-1066,937,-41,29,27
5240,68,-325,-3698,-60,1068,-1065,945,-41,29,27
5250,69,-224,-3694,-13,1064,-1016,967,-42,26,28
5260,70,-153,-3676,17,1064,-932,986,-42,26,28
5270,71,-97,-3718,94,1058,-820,1015,-41,25,23
5280,72,-74,-3730,182,1027,-696,1050,-41,25,23
5290,73,-60,-3679,223,994,-571,1068,-36,30,14
5300,74,-107,-3647,312,948,-417,1071,-36,30,14
5310,75,-213,-3625,377,864,-262,1058,-40,24,22
5320,76,-355,-3653,406,764,-158,1034,-40,24,22
5330,77,-529,-3736,398,654,-146,1013,-40,20,14
5340,78,-613,-3779,328,587,-222,987,-40,20,14
5350,79,-720,-3772,360,540,-313,936,-40,22,12
5360,80,-804,-3840,436,470,-389,865,-40,22,12
5370,81,-806,-3903,466,425,-496,781,-41,19,19
5380,82,-783,-3996,576,377,-628,693,-41,19,19
5390,83,-682,-4182,717,324,-753,620,-35,21,13
5400,84,-468,-4397,712,292,-879,548,-35,21,13
5410,85,-233,-4399,800,308,-936,460,-37,25,15
5420,86,10,-4262,1089,264,-800,342,-37,25,15
5430,87,184,-4240,1274,152,-601,202,-33,25,19
5440,88,273,-4378,1344,60,-403,80,-33,25,19
5450,89,289,-4473,1409,35,-188,1,-33,19,19
5460,90,183,-4369,1402,32,-22,-76,-33,19,19
5470,91,26,-4100,1532,-6,55,-206,-39,17,19
5480,92,-97,-3933,1557,-116,82,-331,-39,17,19
5490,93,-185,-3797,1497,-205,111,-453,-37,21,23
5500,94,-228,-3681,1455,-262,149,-573,-37,21,23
5510,95,-199,-3650,1439,-309,135,-632,-40,20,18
5520,96,-187,-3736,1341,-354,108,-617,-40,20,18
5530,97,-153,-3936,1237,-376,123,-596,-43,21,19
5540,98,-135,-4245,1182,-381,152,-576,-43,21,19
5550,99,-153,-4400,1261,-383,154,-575,-40,24,22
5560,100,-80,-4427,1432,-471,167,-601,-40,24,22
5570,101,96,-4336,1610,-607,188,-619,-46,22,20
5580,102,304,-4131,1737,-754,222,-630,-46,22,20
5590,103,478,-3854,1971,-897,264,-655,-43,17,25
5600,104,610,-3648,2052,-1042,285,-682,-43,17,25
5610,105,581,-3569,2056,-1156,310,-713,-45,21,21
5620,106,441,-3573,1918,-1224,340,-785,-45,21,21
5630,107,347,-3683,1759,-1242,351,-867,-49,25,25
5640,108,204,-3779,1439,-1204,368,-954,-49,25,25
5650,109,138,-3862,1111,-1155,357,-1013,-52,22,30
5660,110,74,-3987,891,-1085,358,-1018,-52,22,30
5670,111,34,-4071,750,-1008,368,-993,-49,19,31
5680,112,-57,-4103,719,-925,371,-999,-49,19,31
5690,113,-66,-4038,853,-887,348,-1052,-47,19,37
5700,114,-34,-3965,917,-912,308,-1117,-47,19,37
5710,115,-79,-3888,978,-976,231,-1169,-54,20,38
5720,116,-119,-3844,955,-1030,123,-1211,-54,20,38
5730,117,-92,-3809,1029,-1048,43,-1243,-56,22,34
5740,118,-52,-3763,1097,-1063,0,-1245,-56,22,34
5750,119,40,-3815,1135,-1069,-16,-1230,-60,20,38
5760,120,124,-3877,1048,-1045,28,-1196,-60,20,38
5770,121,180,-3900,1010,-991,124,-1151,-58,18,40
5780,122,202,-3933,928,-920,214,-1096,-58,18,40
5790,123,181,-3887,895,-838,299,-1045,-57,15,43
5800,124,108,-3858,820,-759,358,-1011,-57,15,43
5810,125,13,-3823,775,-692,382,-981,-68,16,40
5820,126,-33,-3788,809,-636,340,-960,-68,16,40
5830,127,-350,-3779,712,-584,248,-948,-65,23,43
5840,128,-278,-3795,855,-524,76,-945,-65,23,43
5850,129,-344,-3738,738,-467,-49,-934,-71,21,45
5860,130,-376,-3749,762,-417,-217,-941,-71,21,45
5870,131,-362,-3759,716,-384,-413,-935,-65,19,49
5880,132,-119,-3823,802,-347,-514,-908,-65,19,49
5890,133,-178,-3794,733,-310,-582,-876,-70,12,48
5900,134,-84,-3846,741,-278,-622,-822,-70,12,48
5910,135,-85,-3854,707,-230,-626,-771,-75,13,53
5920,136,-79,-3814,597,-180,-656,-729,-75,13,53
5930,137,-33,-3771,485,-128,-653,-690,-74,10,52
5940,138,53,-3784,523,-83,-700,-643,-74,10,52
5950,139,174,-3777,520,-54,-697,-577,-75,9,51
5960,140,119,-3804,457,-34,-671,-505,-75,9,51
5970,141,270,-3793,579,-10,-643,-424,-79,9,57
5980,142,310,-3834,565,6,-582,-334,-79,9,57
5990,143,308,-3875,533,12,-519,-241,-84,8,54
6000,144,395,-3981,471,24,-488,-133,-84,8,54
6010,145,453,-4108,461,47,-487,-13,-80,8,58
6020,146,481,-4194,396,68,-490,111,-80,8,58
6030,147,515,-4381,405,85,-507,226,-81,9,57
6040,148,521,-4608,324,98,-512,331,-81,9,57
6050,149,640,-4831,294,111,-506,442,-86,6,56
6060,150,787,-5061,191,140,-477,567,-86,6,56
6070,151,914,-5154,131,205,-376,688,-83,11,59
6080,152,838,-5084,166,258,-292,775,-83,11,59
6090,153,720,-4996,360,242,-232,864,-82,10,58
6100,154,461,-5099,386,137,-232,942,-82,10,58
6110,155,236,-5279,305,39,-357,1007,-86,10,58
6120,156,86,-5349,232,-31,-588,1059,-86,10,58
6130,157,98,-5327,198,-74,-886,1097,-81,7,61
6140,158,125,-5261,70,-74,-1196,1128,-81,7,61
6150,159,221,-5113,25,-22,-1459,1163,-82,12,62
6160,160,365,-4904,-4,83,-1636,1190,-82,12,62
6170,161,554,-4642,90,200,-1658,1225,-76,14,64
6180,162,748,-4428,256,306,-1537,1284,-76,14,64
6190,163,844,-4251,335,398,-1332,1355,-74,18,62
6200,164,764,-4148,348,487,-1127,1421,-74,18,62
6210,165,502,-4086,312,566,-1000,1462,-74,14,64
6220,166,180,-4086,186,643,-982,1474,-74,14,64
6230,167,-200,-4145,139,708,-1064,1469,-67,19,73
6240,168,-445,-4291,65,735,-1239,1469,-67,19,73
6250,169,-650,-4519,52,751,-1459,1470,-68,18,68
6260,170,-667,-4760,31,787,-1709,1484,-68,18,68
6270,171,-636,-4907,79,837,-1928,1471,-66,24,76
6280,172,-478,-4949,202,878,-2082,1438,-66,24,76
6290,173,-281,-4879,342,895,-2157,1396,-66,30,74
6300,174,-47,-4759,514,865,-2157,1339,-66,30,74
6310,175,177,-4581,548,820,-2038,1276,-65,27,73
6320,176,234,-4414,461,791,-1885,1224,-65,27,73
6330,177,227,-4184,438,793,-1712,1162,-61,29,73
6340,178,161,-3999,450,780,-1543,1098,-61,29,73
6350,179,-111,-3857,333,751,-1395,1058,-63,29,77
6360,180,-88,-3697,269,733,-1302,995,-63,29,77
6370,181,-201,-3639,230,700,-1192,955,-52,30,78
6380,182,-260,-3586,170,685,-1111,912,-52,30,78
6390,183,-356,-3516,160,715,-1129,864,-52,34,78
6400,184,-426,-3443,171,717,-1184,810,-52,34,78
6410,185,-399,-3433,179,719,-1156,769,-50,36,78
6420,186,-301,-3387,125,750,-1044,739,-50,36,78
6430,187,-239,-3344,186,783,-940,711,-50,36,78
6440,188,-229,-3271,240,782,-857,683,-50,36,78
6450,189,-209,-3238,285,779,-767,656,-49,41,77
6460,190,-205,-3209,329,749,-682,622,-49,41,77
6470,191,-207,-3158,380,699,-574,591,-41,45,75
6480,192,-291,-3208,470,623,-499,578,-41,45,75
6490,193,-326,-3266,456,544,-423,567,-45,37,69
6500,194,-399,-3371,470,476,-376,559,-45,37,69
6510,195,-465,-3566,385,398,-353,559,-46,36,72
6520,196,-541,-3646,291,404,-355,529,-46,36,72
6530,197,-586,-3621,400,398,-322,453,-46,34,70
6540,198,-623,-3721,479,310,-290,408,-46,34,70
6550,199,-693,-3915,443,274,-257,371,-41,35,73
6560,200,-719,-3989,476,294,-292,330,-41,35,73
6570,201,-668,-3959,572,270,-370,296,-38,38,68
6580,202,-519,-3909,784,239,-351,227,-38,38,68
6590,203,-386,-3866,978,159,-260,144,-46,46,66
6600,204,-226,-3924,1122,53,-162,48,-46,46,66
6610,205,-67,-4136,1340,-52,-40,-40,-43,41,71
6620,206,-1,-4423,1341,-139,162,-122,-43,41,71
6630,207,-19,-4545,1368,-196,447,-224,-44,38,74
6640,208,-132,-4534,1419,-288,715,-339,-44,38,74
6650,209,-229,-4545,1537,-415,890,-424,-35,45,71
6660,210,-271,-4687,1583,-552,1024,-493,-35,45,71
6670,211,-415,-4891,1510,-653,1131,-555,-46,40,70
6680,212,-546,-5187,1379,-741,1162,-638,-46,40,70
6690,213,-826,-5231,1243,-773,1104,-736,-46,38,72
6700,214,-1151,-5032,1299,-815,949,-858,-46,38,72
6710,215,-1293,-4685,1417,-904,659,-960,-46,46,76
6720,216,-1145,-4267,1521,-1023,281,-1025,-46,46,76
6730,217,-847,-3834,1590,-1134,-68,-1071,-49,45,75
6740,218,-502,-3515,1642,-1231,-324,-1101,-49,45,75
6750,219,-261,-3371,1438,-1280,-516,-1137,-57,37,79
6760,220,-87,-3358,1205,-1226,-674,-1164,-57,37,79
6770,221,114,-3299,1051,-1127,-789,-1177,-52,38,84
6780,222,383,-3374,924,-1031,-841,-1172,-52,38,84
6790,223,613,-3521,792,-908,-796,-1117,-57,41,81
6800,224,835,-3649,730,-769,-644,-1048,-57,41,81
6810,225,996,-3764,661,-624,-421,-987,-56,34,90
6820,226,1052,-3881,663,-519,-145,-946,-56,34,90
6830,227,1001,-3957,776,-491,136,-932,-60,30,90
6840,228,806,-4085,792,-540,360,-932,-60,30,90
6850,229,647,-4193,664,-598,475,-922,-63,33,89
6860,230,422,-4287,635,-648,540,-907,-63,33,89
6870,231,369,-4336,664,-674,577,-896,-64,30,88
6880,232,266,-4345,716,-691,587,-892,-64,30,88
6890,233,280,-4321,742,-704,595,-900,-67,35,91
6900,234,293,-4325,818,-707,626,-911,-67,35,91
6910,235,287,-4295,815,-696,670,-913,-70,26,92
6920,236,229,-4236,810,-666,735,-914,-70,26,92
6930,237,170,-4177,791,-623,812,-908,-70,30,96
6940,238,83,-4111,719,-553,856,-903,-70,30,96
6950,239,-40,-4057,645,-454,873,-902,-70,20,96
6960,240,-298,-3964,548,-367,859,-895,-70,20,96
6970,241,-405,-3857,613,-297,754,-905,-71,25,93
6980,242,-674,-3753,477,-239,638,-922,-71,25,93
6990,243,-705,-3665,534,-198,473,-936,-75,23,91
7000,244,-602,-3635,605,-179,323,-955,-75,23,91
7010,245,-529,-3649,603,-182,205,-955,-81,29,99
7020,246,-548,-3688,493,-168,97,-941,-81,29,99
7030,247,-490,-3711,559,-140,44,-896,-83,17,91
7040,248,-348,-3687,593,-123,60,-860,-83,17,91
7050,249,-411,-3687,562,-108,7,-814,-83,23,91
7060,250,-332,-3686,512,-94,-40,-757,-83,23,91
7070,251,-303,-3670,517,-67,-40,-701,-87,19,89
7080,252,-216,-3630,551,-51,-27,-633,-87,19,89
7090,253,-197,-3620,504,-53,-15,-556,-86,20,90
7100,254,-158,-3663,465,-60,-12,-478,-86,20,90
7110,255,-157,-3727,467,-49,-15,-403,-88,16,90
7120,0,-183,-3737,469,-32,-8,-346,-88,16,90
7130,1,-156,-3760,505,-29,-5,-289,-88,20,94
7140,2,-127,-3876,467,-22,-33,-235,-88,20,94
7150,3,-57,-3992,527,-6,-65,-170,-91,19,93
7160,4,25,-4103,568,-2,-58,-99,-91,19,93
7170,5,48,-4185,537,4,-43,-18,-93,17,91
7180,6,114,-4278,535,7,-63,75,-93,17,91
7190,7,107,-4432,497,-8,-103,160,-91,13,95
7200,8,77,-4641,428,-25,-174,242,-91,13,95
7210,9,54,-4876,429,-50,-290,333,-86,14,96
7220,10,90,-5074,415,-76,-369,424,-86,14,96
7230,11,85,-5177,387,-70,-433,499,-87,13,95
7240,12,77,-5239,483,-68,-503,566,-87,13,95
7250,13,110,-5403,492,-89,-570,630,-88,16,106
7260,14,145,-5623,401,-93,-647,689,-88,16,106
7270,15,106,-5707,322,-74,-740,733,-86,18,96
7280,16,54,-5562,310,-41,-844,760,-86,18,96
7290,17,-35,-5442,352,-37,-978,792,-85,15,97
7300,18,-133,-5293,381,-23,-1153,827,-85,15,97
7310,19,-209,-5037,425,5,-1348,832,-84,24,98
7320,20,-220,-4774,446,23,-1527,800,-84,24,98
7330,21,-206,-4529,388,48,-1663,754,-86,24,104
7340,22,-107,-4298,345,79,-1743,728,-86,24,104
7350,23,-130,-4199,218,125,-1817,731,-78,24,110
7360,24,-152,-4179,88,202,-1941,753,-78,24,110
7370,25,-176,-4243,-21,303,-2075,789,-73,23,107
7380,26,-326,-4324,-213,406,-2273,826,-73,23,107
7390,27,-399,-4405,-302,509,-2530,865,-70,26,114
7400,28,-321,-4489,-359,588,-2777,920,-70,26,114
7410,29,-194,-4594,-309,662,-2942,982,-70,24,112
7420,30,26,-4710,-254,743,-3005,1031,-70,24,112
7430,31,243,-4749,-204,813,-2996,1071,-63,27,117
7440,32,384,-4759,-185,858,-2963,1114,-63,27,117
7450,33,520,-4714,-68,908,-2826,1161,-64,30,116
7460,34,646,-4594,54,958,-2589,1192,-64,30,116
7470,35,696,-4405,220,1002,-2275,1202,-55,31,117
7480,36,637,-4190,239,1002,-1978,1206,-55,31,117
7490,37,491,-3988,218,991,-1721,1206,-50,42,118
7500,38,395,-3799,200,957,-1438,1202,-50,42,118
7510,39,139,-3690,106,939,-1238,1201,-44,40,122
7520,40,-40,-3583,65,933,-1127,1182,-44,40,122
7530,41,-349,-3518,51,910,-1116,1158,-45,41,115
7540,42,-435,-3514,3,890,-1106,1125,-45,41,115
7550,43,-530,-3516,-51,891,-1126,1085,-39,41,115
7560,44,-541,-3539,-41,895,-1176,1036,-39,41,115
7570,45,-542,-3542,14,884,-1241,998,-35,47,115
7580,46,-579,-3597,-8,866,-1304,977,-35,47,115
7590,47,-514,-3644,60,864,-1319,962,-28,46,118
7600,48,-508,-3649,39,842,-1295,956,-28,46,118
7610,49,-416,-3627,131,817,-1237,957,-28,52,118
7620,50,-341,-3641,159,798,-1161,943,-28,52,118
7630,51,-271,-3599,211,780,-1055,927,-22,48,114
7640,52,-241,-3555,268,743,-947,909,-22,48,114
7650,53,-259,-3538,352,679,-848,891,-22,56,108
7660,54,-213,-3625,410,601,-756,883,-22,56,108
7670,55,-190,-3612,419,542,-668,870,-21,55,105
7680,56,-275,-3545,462,504,-544,821,-21,55,105
7690,57,-372,-3557,530,437,-436,762,-12,52,108
7700,58,-396,-3633,554,366,-389,704,-12,52,108
7710,59,-491,-3640,484,302,-365,633,-14,56,104
7720,60,-530,-3821,557,222,-445,571,-14,56,104
7730,61,-474,-4060,394,169,-494,552,-14,58,106
7740,62,-382,-4038,516,238,-491,476,-14,58,106
7750,63,-396,-3995,712,222,-421,392,-9,57,107
7760,64,-328,-4080,792,177,-344,288,-9,57,107
7770,65,-219,-4109,926,163,-254,176,-7,55,107
7780,66,-67,-4060,1150,113,-113,51,-7,55,107
7790,67,37,-4346,1301,-24,30,-50,-10,62,106
7800,68,-46,-4533,1173,-87,139,-143,-10,62,106
7810,69,-195,-4494,1172,-73,232,-219,-5,55,103
7820,70,-377,-4229,1334,-160,308,-311,-5,55,103
7830,71,-419,-4063,1517,-369,382,-448,-2,60,104
7840,72,-304,-4178,1442,-531,431,-548,-2,60,104
7850,73,-183,-4305,1398,-589,453,-598,-11,65,103
7860,74,-179,-4487,1393,-619,495,-591,-11,65,103
7870,75,-301,-4730,1334,-644,532,-583,-12,60,110
7880,76,-476,-4776,1295,-635,581,-614,-12,60,110
7890,77,-552,-4598,1380,-678,619,-683,-13,59,107
7900,78,-487,-4305,1494,-773,577,-761,-13,59,107
7910,79,-231,-3989,1559,-865,489,-846,-16,62,104
7920,80,12,-3718,1693,-960,411,-910,-16,62,104
7930,81,110,-3571,1633,-1012,299,-957,-19,61,103
7940,82,67,-3513,1493,-1032,168,-1021,-19,61,103
7950,83,5,-3535,1300,-1021,8,-1094,-24,58,110
7960,84,-46,-3549,1145,-965,-129,-1146,-24,58,110
7970,85,19,-3617,1022,-920,-231,-1163,-19,59,111
7980,86,154,-3681,890,-864,-325,-1146,-19,59,111
7990,87,322,-3774,866,-795,-355,-1121,-27,55,113
8000,88,463,-3819,881,-745,-294,-1111,-27,55,113
8010,89,600,-3884,894,-717,-191,-1101,-32,58,114
8020,90,633,-3938,906,-718,-53,-1104,-32,58,114
8030,91,658,-4057,828,-741,94,-1106,-32,54,116
8040,92,583,-4177,740,-776,242,-1113,-32,54,116
8050,93,522,-4233,693,-792,403,-1105,-35,53,119
8060,94,383,-4306,663,-811,524,-1095,-35,53,119
8070,95,287,-4335,635,-827,609,-1084,-39,51,119
8080,96,140,-4320,639,-828,659,-1083,-39,51,119
8090,97,82,-4299,742,-833,693,-1089,-45,47,117
8100,98,51,-4241,736,-835,725,-1094,-45,47,117
8110,99,90,-4218,790,-833,784,-1096,-49,47,119
8120,100,-41,-4115,754,-804,794,-1096,-49,47,119
8130,101,-180,-4076,724,-775,797,-1094,-53,51,125
8140,102,-177,-4011,699,-731,742,-1097,-53,51,125
8150,103,-410,-3936,574,-687,656,-1106,-58,44,122
8160,104,-396,-3856,613,-646,490,-1114,-58,44,122
8170,105,-454,-3780,603,-612,369,-1127,-57,43,125
8180,106,-378,-3748,607,-570,247,-1131,-57,43,125
8190,107,-328,-3732,625,-529,180,-1116,-62,50,120
8200,108,-216,-3696,659,-485,109,-1074,-62,50,120
8210,109,-187,-3738,675,-439,107,-1031,-69,39,125
8220,110,-124,-3752,622,-387,88,-979,-69,39,125
8230,111,-82,-3777,585,-341,82,-914,-68,40,124
8240,112,-152,-3788,517,-290,69,-842,-68,40,124
8250,113,-150,-3817,519,-232,51,-768,-76,34,122
8260,114,-149,-3797,500,-201,36,-695,-76,34,122
8270,115,-137,-3831,463,-180,0,-626,-78,38,122
8280,116,-133,-3857,477,-165,-40,-561,-78,38,122
8290,117,-104,-3909,478,-152,-60,-502,-73,35,123
8300,118,-146,-3944,449,-132,-88,-443,-73,35,123
8310,119,-140,-3918,496,-111,-100,-386,-80,34,120
8320,120,-102,-3902,564,-103,-103,-326,-80,34,120
8330,121,-68,-4009,571,-112,-102,-256,-78,34,128
8340,122,-52,-4089,515,-114,-118,-176,-78,34,128
8350,123,-80,-4245,494,-115,-165,-82,-81,33,123
8360,124,-154,-4423,361,-114,-234,25,-81,33,123
8370,125,-131,-4570,319,-106,-334,139,-81,35,125
8380,126,-108,-4809,253,-109,-460,267,-81,35,125
8390,127,-26,-5087,208,-107,-586,408,-81,31,117
8400,128,0,-5259,119,-84,-704,536,-81,31,117
8410,129,-49,-5257,156,-50,-805,639,-79,33,127
8420,130,-28,-5268,227,-49,-904,727,-79,33,127
8430,131,113,-5420,241,-68,-1035,805,-81,37,133
8440,132,209,-5576,198,-87,-1202,868,-81,37,133
8450,133,328,-5669,105,-77,-1385,918,-77,37,131
8460,134,401,-5592,41,-31,-1565,965,-77,37,131
8470,135,417,-5375,108,42,-1742,998,-80,38,130
8480,136,473,-5078,178,127,-1863,998,-80,38,130
8490,137,515,-4794,201,200,-1929,970,-73,43,135
8500,138,575,-4633,150,275,-1916,943,-73,43,135
8510,139,635,-4510,116,382,-1849,942,-65,43,137
8520,140,534,-4380,-33,506,-1803,966,-65,43,137
8530,141,483,-4308,-84,656,-1795,993,-64,42,138
8540,142,369,-4233,-115,785,-1826,1037,-64,42,138
8550,143,288,-4215,-148,892,-1893,1091,-65,43,139
8560,144,176,-4204,-180,974,-1967,1151,-65,43,139
8570,145,97,-4243,-213,1032,-2029,1221,-51,47,139
8580,146,43,-4309,-240,1078,-2078,1292,-51,47,139
8590,147,29,-4421,-194,1110,-2110,1361,-48,50,140
8600,148,-13,-4492,-201,1129,-2111,1428,-48,50,140
8610,149,20,-4589,-107,1147,-2094,1486,-41,53,145
8620,150,37,-4607,-59,1154,-2034,1523,-41,53,145
8630,151,82,-4594,73,1155,-1937,1544,-35,63,133
8640,152,130,-4493,183,1133,-1802,1548,-35,63,133
8650,153,77,-4372,226,1089,-1685,1537,-28,66,140
8660,154,28,-4230,269,1035,-1518,1519,-28,66,140
8670,155,-55,-4138,238,980,-1356,1509,-16,64,132
8680,156,-238,-4016,186,921,-1277,1502,-16,64,132
8690,157,-297,-3899,197,886,-1234,1455,-14,68,136
8700,158,-352,-3834,149,848,-1227,1404,-14,68,136
8710,159,-393,-3776,221,811,-1255,1347,-6,74,128
8720,160,-402,-3741,248,778,-1305,1288,-6,74,128
8730,161,-386,-3681,264,738,-1348,1218,-2,66,128
8740,162,-354,-3652,304,721,-1360,1153,-2,66,128
8750,163,-329,-3605,297,721,-1341,1090,5,71,125
8760,164,-275,-3536,318,725,-1291,1031,5,71,125
8770,165,-171,-3506,327,728,-1195,975,11,73,123
8780,166,-126,-3480,328,727,-1071,926,11,73,123
8790,167,-132,-3470,356,726,-963,883,18,66,120
8800,168,-180,-3463,391,726,-862,830,18,66,120
8810,169,-243,-3409,456,709,-784,770,21,77,117
8820,170,-220,-3442,538,662,-708,720,21,77,117
8830,171,-254,-3448,532,619,-624,664,22,76,110
8840,172,-259,-3518,568,548,-537,605,22,76,110
8850,173,-330,-3555,588,506,-454,539,28,78,110
8860,174,-354,-3602,582,433,-366,461,28,78,110
8870,175,-443,-3715,567,376,-325,386,30,74,108
8880,176,-509,-3750,597,346,-299,283,30,74,108
8890,177,-564,-3773,551,317,-280,171,32,72,112
8900,178,-583,-3892,633,246,-323,101,32,72,112
8910,179,-521,-4065,709,220,-396,53,32,76,108
8920,180,-393,-4050,845,214,-476,5,32,76,108
8930,181,-226,-3974,1003,183,-506,-79,36,80,104
8940,182,-57,-3915,1147,118,-459,-189,36,80,104
8950,183,59,-3926,1333,19,-357,-278,35,75,109
8960,184,-3,-4089,1491,-76,-269,-314,35,75,109
8970,185,-113,-4272,1481,-191,-162,-345,31,79,105
8980,186,-178,-4324,1246,-262,26,-413,31,79,105
8990,187,-224,-4188,1321,-314,191,-494,31,77,107
9000,188,-216,-4084,1437,-447,329,-569,31,77,107
9010,189,-118,-4126,1375,-603,487,-634,32,74,108
9020,190,-49,-4372,1289,-699,640,-684,32,74,108
9030,191,-100,-4545,1317,-725,771,-696,30,80,108
9040,192,-311,-4623,1277,-718,877,-716,30,80,108
9050,193,-442,-4555,1343,-751,946,-777,23,77,107
9060,194,-481,-4310,1391,-842,962,-830,23,77,107
9070,195,-368,-3992,1415,-946,904,-904,24,82,110
9080,196,-178,-3703,1534,-1042,761,-961,24,82,110
9090,197,31,-3503,1577,-1129,550,-987,16,78,116
9100,198,108,-3436,1526,-1174,326,-1024,16,78,116
9110,199,141,-3393,1403,-1152,176,-1067,19,85,115
9120,200,130,-3361,1169,-1122,91,-1116,19,85,115
9130,201,206,-3414,974,-1097,31,-1146,14,76,120
9140,202,400,-3506,886,-1045,38,-1140,14,76,120
9150,203,538,-3598,778,-981,78,-1122,11,79,123
9160,204,580,-3677,768,-902,176,-1092,11,79,123
9170,205,638,-3700,854,-878,307,-1060,9,75,125
9180,206,581,-3840,782,-871,464,-1045,9,75,125
9190,207,560,-3932,737,-876,606,-1059,8,80,126
9200,208,516,-4043,667,-893,746,-1076,8,80,126
9210,209,472,-4114,641,-913,859,-1084,-3,77,137
9220,210,404,-4229,644,-951,949,-1068,-3,77,137
9230,211,272,-4344,604,-973,1013,-1056,2,78,138
9240,212,169,-4395,622,-991,1037,-1056,2,78,138
9250,213,72,-4402,633,-987,1044,-1062,-3,73,139
9260,214,103,-4365,749,-978,1068,-1064,-3,73,139
9270,215,164,-4343,816,-961,1115,-1049,-14,72,140
9280,216,191,-4330,816,-933,1158,-1029,-14,72,140
9290,217,127,-4258,826,-873,1191,-1004,-21,71,143
9300,218,81,-4219,778,-812,1227,-990,-21,71,143
9310,219,-31,-4122,755,-757,1242,-995,-19,71,143
9320,220,-186,-4050,604,-688,1228,-1007,-19,71,143
9330,221,-304,-3948,569,-607,1126,-1020,-30,70,144
9340,222,-371,-3860,588,-545,1020,-1032,-30,70,144
9350,223,-517,-3806,537,-490,879,-1050,-26,66,150
9360,224,-558,-3762,566,-451,660,-1057,-26,66,150
9370,225,-409,-3784,639,-412,559,-1070,-32,68,142
9380,226,-420,-3792,657,-391,418,-1074,-32,68,142
9390,227,-370,-3802,673,-369,335,-1046,-41,63,151
9400,228,-337,-3834,709,-351,293,-992,-41,63,151
9410,229,-279,-3860,690,-333,278,-943,-36,64,150
9420,230,-332,-3901,607,-330,262,-894,-36,64,150
9430,231,-361,-3910,525,-313,260,-840,-38,62,148
9440,232,-349,-3909,401,-268,258,-784,-38,62,148
9450,233,-293,-3860,427,-202,192,-722,-47,65,153
9460,234,-261,-3829,487,-165,169,-652,-47,65,153
9470,235,-201,-3857,476,-156,126,-576,-54,60,148
9480,236,-200,-3941,460,-153,83,-491,-54,60,148
9490,237,-160,-4024,484,-156,40,-397,-49,61,149
9500,238,-150,-4070,469,-172,-14,-300,-49,61,149
9510,239,-84,-4212,412,-202,-72,-203,-46,60,150
9520,240,-19,-4377,290,-214,-167,-87,-46,60,150
9530,241,114,-4634,196,-219,-258,58,-50,58,154
9540,242,239,-4971,73,-220,-345,225,-50,58,154
9550,243,286,-5215,-19,-175,-371,407,-53,61,153
9560,244,364,-5242,-7,-105,-349,540,-53,61,153
9570,245,348,-5207,76,-51,-315,637,-45,55,147
9580,246,380,-5324,178,-48,-288,732,-45,55,147
9590,247,365,-5476,175,-46,-276,815,-44,62,150
9600,248,332,-5544,209,-31,-323,870,-44,62,150
9610,249,268,-5510,167,-27,-457,913,-42,64,150
9620,250,211,-5423,156,-13,-654,945,-42,64,150
9630,251,169,-5215,210,30,-877,955,-36,70,160
9640,252,104,-5027,197,85,-1081,936,-36,70,160
9650,253,150,-4821,221,152,-1226,909,-32,68,154
9660,254,186,-4636,211,227,-1323,889,-32,68,154
9670,255,200,-4554,90,319,-1404,886,-26,60,152
9680,0,184,-4502,17,431,-1529,905,-26,60,152
9690,1,211,-4504,-28,535,-1703,944,-19,65,153
9700,2,192,-4523,-182,647,-1886,982,-19,65,153
9710,3,227,-4555,-197,744,-2063,1046,-11,69,149
9720,4,235,-4523,-223,840,-2222,1109,-11,69,149
9730,5,313,-4503,-147,917,-2319,1183,-8,70,146
9740,6,373,-4489,-148,978,-2355,1257,-8,70,146
9750,7,545,-4578,-28,1030,-2286,1327,8,68,142
9760,8,620,-4648,-30,1096,-2165,1403,8,68,142
9770,9,682,-4600,70,1191,-1978,1462,12,76,144
9780,10,704,-4521,220,1263,-1737,1492,12,76,144
9790,11,691,-4382,321,1294,-1443,1515,20,74,138
9800,12,602,-4220,385,1296,-1132,1517,20,74,138
9810,13,516,-4069,450,1268,-846,1511,30,74,136
9820,14,252,-3907,420,1234,-600,1497,30,74,136
9830,15,176,-3737,473,1192,-374,1450,37,75,129
9840,16,-131,-3593,428,1117,-278,1392,37,75,129
9850,17,-343,-3500,441,1024,-252,1344,39,75,125
9860,18,-640,-3445,412,943,-271,1282,39,75,125
9870,19,-734,-3359,501,871,-409,1194,49,73,117
9880,20,-875,-3339,449,785,-553,1105,49,73,117
9890,21,-832,-3317,420,708,-719,1025,55,69,117
9900,22,-864,-3339,343,688,-871,938,55,69,117
9910,23,-715,-3284,371,704,-980,854,56,76,118
9920,24,-591,-3267,348,701,-1062,785,56,76,118
9930,25,-526,-3223,399,700,-1086,715,67,73,109
9940,26,-476,-3205,426,688,-1085,659,67,73,109
9950,27,-373,-3201,498,693,-1040,601,64,68,110
9960,28,-306,-3190,579,676,-944,546,64,68,110
9970,29,-298,-3217,597,639,-825,505,62,68,102
9980,30,-230,-3277,644,591,-693,471,62,68,102
9990,31,-270,-3337,582,547,-547,437,70,68,100
10000,32,-261,-3404,553,544,-387,380,70,68,100
10010,33,-403,-3533,591,517,-290,298,72,66,96
10020,34,-527,-3804,502,409,-192,288,72,66,96
10030,35,-579,-3868,519,471,-125,215,72,60,98
10040,36,-680,-3925,591,412,-120,177,72,60,98
10050,37,-741,-4066,649,356,-116,135,72,64,86
10060,38,-642,-4247,654,325,-160,98,72,64,86
10070,39,-503,-4160,825,324,-186,22,78,66,94
10080,40,-294,-4091,1043,211,-118,-66,78,66,94
10090,41,-55,-3974,1190,88,2,-204,75,65,91
10100,42,156,-4094,1427,-92,155,-346,75,65,91
10110,43,194,-4526,1329,-214,241,-399,78,58,84
10120,44,9,-4694,1203,-182,350,-406,78,58,84
10130,45,-283,-4473,1397,-188,467,-437,77,61,91
10140,46,-391,-4357,1513,-383,517,-513,77,61,91
10150,47,-370,-4474,1438,-581,538,-592,72,58,92
10160,48,-349,-4643,1287,-708,624,-674,72,58,92
10170,49,-338,-4776,1200,-767,737,-733,72,60,94
10180,50,-394,-4770,1131,-793,802,-765,72,60,94
10190,51,-411,-4623,1188,-813,864,-811,70,64,102
10200,52,-305,-4272,1345,-858,933,-875,70,64,102
10210,53,-131,-3939,1476,-926,931,-943,67,65,103
10220,54,42,-3634,1562,-1014,862,-991,67,65,103
10230,55,124,-3501,1485,-1075,693,-1015,64,62,102
10240,56,206,-3473,1398,-1090,505,-1040,64,62,102
10250,57,209,-3576,1187,-1079,360,-1075,65,63,107
10260,58,232,-3727,985,-1048,276,-1107,65,63,107
10270,59,318,-3838,818,-977,222,-1118,58,64,114
10280,60,395,-3911,758,-893,226,-1087,58,64,114
10290,61,523,-3999,738,-815,324,-1039,56,64,116
10300,62,595,-3984,717,-749,461,-1010,56,64,116
10310,63,648,-3972,758,-715,599,-1022,49,63,121
10320,64,671,-3930,780,-730,699,-1060,49,63,121
10330,65,669,-3945,755,-767,801,-1104,46,60,116
10340,66,565,-3946,665,-802,877,-1138,46,60,116
10350,67,510,-3961,628,-821,938,-1157,42,62,122
10360,68,395,-3976,561,-840,993,-1159,42,62,122
10370,69,304,-4010,539,-833,1037,-1152,43,61,121
10380,70,199,-4041,460,-791,1073,-1130,43,61,121
10390,71,155,-4098,541,-740,1153,-1104,38,60,126
10400,72,124,-4146,516,-682,1250,-1073,38,60,126
10410,73,45,-4181,503,-616,1363,-1035,28,60,130
10420,74,-17,-4147,492,-559,1469,-995,28,60,130
10430,75,-120,-4049,483,-529,1523,-971,26,58,136
10440,76,-211,-3929,472,-520,1558,-956,26,58,136
10450,77,-296,-3795,506,-542,1551,-946,25,57,139
10460,78,-361,-3740,473,-568,1552,-943,25,57,139
10470,79,-616,-3655,383,-582,1439,-941,16,58,136
10480,80,-641,-3692,442,-578,1368,-940,16,58,136
10490,81,-758,-3716,467,-575,1245,-924,11,57,131
10500,82,-875,-3691,520,-565,1087,-909,11,57,131
10510,83,-849,-3681,598,-548,928,-893,6,60,134
10520,84,-777,-3665,647,-529,800,-865,6,60,134
10530,85,-666,-3696,719,-532,623,-839,4,58,138
10540,86,-515,-3730,683,-499,505,-791,4,58,138
10550,87,-447,-3764,754,-451,453,-723,-4,56,144
10560,88,-318,-3800,807,-412,421,-642,-4,56,144
10570,89,-282,-3864,730,-381,366,-546,-4,52,142
10580,90,-261,-3939,633,-338,333,-452,-4,52,142
10590,91,-297,-4054,580,-292,303,-365,-2,50,148
10600,92,-229,-4198,540,-243,256,-280,-2,50,148
10610,93,-189,-4320,483,-199,200,-200,-8,50,148
10620,94,-193,-4438,426,-157,117,-115,-8,50,148
10630,95,-68,-4542,474,-124,50,-40,-8,50,144
10640,96,7,-4674,417,-102,-3,28,-8,50,144
10650,97,164,-4791,438,-77,-14,93,-8,48,144
10660,98,265,-5032,422,-57,-14,183,-8,48,144
10670,99,282,-5269,363,-39,-1,297,-4,44,146
10680,100,269,-5436,266,-1,-12,396,-4,44,146
10690,101,229,-5374,321,56,-24,448,-4,48,152
10700,102,196,-5265,423,75,-27,475,-4,48,152
10710,103,177,-5379,466,48,-23,502,2,46,144
10720,104,135,-5735,296,16,-77,570,2,46,144
10730,105,-17,-5882,167,44,-232,641,-2,46,144
10740,106,-98,-5750,114,79,-461,679,-2,46,144
10750,107,-61,-5469,109,97,-717,702,1,43,145
10760,108,56,-5089,117,145,-946,718,1,43,145
10770,109,153,-4717,199,206,-1101,722,-2,42,146
10780,110,242,-4394,268,267,-1181,719,-2,42,146
10790,111,248,-4158,283,341,-1192,719,6,44,140
10800,112,248,-4016,276,428,-1178,725,6,44,140
10810,113,209,-3979,205,521,-1195,752,7,43,145
10820,114,116,-4006,88,627,-1287,798,7,43,145
10830,115,-23,-4026,12,729,-1447,854,13,45,145
10840,116,-89,-4091,-19,799,-1642,906,13,45,145
10850,117,-176,-4170,-87,853,-1823,967,11,43,137
10860,118,-161,-4246,-153,893,-1982,1037,11,43,137
10870,119,-339,-4305,-187,928,-2131,1115,21,43,139
10880,120,-167,-4387,-90,966,-2234,1174,21,43,139
10890,121,0,-4508,29,977,-2231,1241,28,46,136
10900,122,160,-4569,94,995,-2147,1291,28,46,136
10910,123,239,-4598,142,1026,-2024,1329,32,40,128
10920,124,323,-4460,252,1047,-1857,1347,32,40,128
10930,125,477,-4338,409,1033,-1642,1344,39,47,131
10940,126,458,-4202,392,1008,-1380,1339,39,47,131
10950,127,279,-4022,394,968,-1160,1315,39,43,123
10960,128,102,-3856,432,917,-985,1291,39,43,123
10970,129,-106,-3745,409,859,-864,1245,48,42,120
10980,130,-242,-3620,374,805,-785,1180,48,42,120
10990,131,-354,-3526,433,745,-783,1123,45,41,123
11000,132,-486,-3476,330,683,-867,1044,45,41,123
11010,133,-442,-3428,440,624,-953,959,49,41,113
11020,134,-624,-3413,300,582,-1060,882,49,41,113
11030,135,-513,-3327,315,581,-1186,799,58,40,112
11040,136,-345,-3322,369,593,-1202,718,58,40,112
11050,137,-194,-3263,347,597,-1126,674,54,42,112
11060,138,-132,-3264,367,615,-1078,625,54,42,112
11070,139,-94,-3254,469,627,-1032,581,57,37,109
11080,140,-113,-3260,476,610,-962,534,57,37,109
11090,141,-116,-3289,541,575,-874,504,62,34,112
11100,142,-121,-3336,506,537,-777,474,62,34,112
11110,143,-164,-3349,565,502,-664,426,60,36,102
11120,144,-187,-3391,557,445,-508,366,60,36,102
11130,145,-279,-3468,578,408,-410,281,63,41,101
11140,146,-393,-3546,569,339,-316,231,63,41,101
11150,147,-369,-3689,551,324,-238,160,62,36,104
11160,148,-379,-3837,425,299,-229,121,62,36,104
11170,149,-391,-3968,490,330,-218,71,65,37,97
11180,150,-383,-4021,577,339,-184,20,65,37,97
11190,151,-364,-4109,694,302,-148,-34,57,37,97
11200,152,-327,-4202,756,255,-120,-90,57,37,97
11210,153,-291,-4090,1004,222,-84,-167,60,44,100
11220,154,-172,-4175,1142,98,-35,-240,60,44,100
11230,155,-43,-4373,1223,-28,-12,-289,60,36,96
11240,156,-23,-4567,1223,-150,42,-308,60,36,96
11250,157,-103,-4696,1128,-234,192,-349,63,39,97
11260,158,-217,-4634,1143,-305,365,-446,63,39,97
11270,159,-108,-4578,1315,-430,455,-535,58,42,104
11280,160,4,-4677,1315,-553,512,-570,58,42,104
11290,161,71,-4836,1327,-628,632,-581,58,38,102
11300,162,24,-4920,1266,-664,776,-594,58,38,102
11310,163,-148,-4810,1248,-661,857,-629,56,40,104
11320,164,-210,-4606,1289,-681,915,-702,56,40,104
11330,165,-169,-4264,1343,-733,921,-751,54,40,104
11340,166,-63,-3877,1426,-797,847,-788,54,40,104
11350,167,71,-3521,1444,-875,697,-835,50,40,106
11360,168,171,-3393,1382,-936,500,-869,50,40,106
11370,169,256,-3433,1228,-953,318,-910,50,42,108
11380,170,272,-3599,1013,-918,202,-942,50,42,108
11390,171,276,-3801,836,-853,125,-955,44,46,116
11400,172,356,-3917,736,-783,85,-938,44,46,116
11410,173,367,-3974,685,-716,105,-907,43,45,117
11420,174,496,-3993,714,-681,183,-873,43,45,117
11430,175,597,-3981,772,-679,302,-842,35,41,119
11440,176,641,-3993,815,-688,458,-828,35,41,119
11450,177,707,-3961,786,-702,637,-831,33,37,121
11460,178,661,-3887,758,-743,817,-831,33,37,121
11470,179,571,-3774,662,-771,992,-842,34,42,120
11480,180,459,-3695,607,-788,1153,-857,34,42,120
11490,181,355,-3664,556,-784,1260,-863,26,40,124
11500,182,168,-3694,521,-750,1331,-861,26,40,124
11510,183,-1,-3724,530,-688,1357,-863,25,41,123
11520,184,-160,-3766,523,-639,1383,-869,25,41,123
11530,185,-285,-3896,507,-603,1393,-850,19,37,127
11540,186,-381,-3939,483,-533,1389,-829,19,37,127
11550,187,-447,-3963,579,-488,1364,-805,18,38,126
11560,188,-480,-3950,686,-474,1348,-777,18,38,126
11570,189,-508,-3940,629,-468,1308,-757,18,40,130
11580,190,-595,-3881,662,-427,1265,-748,18,40,130
11590,191,-627,-3834,724,-385,1236,-742,1,41,129
11600,192,-723,-3758,759,-364,1174,-736,1,41,129
11610,193,-817,-3725,737,-348,1069,-722,11,37,133
11620,194,-839,-3709,733,-329,932,-715,11,37,133
11630,195,-861,-3697,738,-312,780,-708,4,40,134
11640,196,-1018,-3720,701,-298,588,-690,4,40,134
11650,197,-970,-3752,748,-281,396,-673,0,40,132
11660,198,-891,-3769,700,-283,226,-657,0,40,132
11670,199,-797,-3833,660,-290,66,-631,-5,37,135
11680,200,-626,-3884,604,-267,-87,-594,-5,37,135
11690,201,-513,-3952,529,-224,-189,-536,-9,45,135
11700,202,-362,-4022,517,-182,-234,-469,-9,45,135
11710,203,-240,-4083,496,-146,-287,-393,-1,35,133
11720,204,-108,-4176,543,-109,-290,-295,-1,35,133
11730,205,51,-4312,469,-68,-250,-184,-5,39,141
11740,206,106,-4483,450,-34,-205,-78,-5,39,141
11750,207,213,-4612,423,-2,-156,21,-8,40,140
11760,208,318,-4748,405,31,-92,122,-8,40,140
11770,209,372,-4907,404,35,-16,217,-6,38,138
11780,210,331,-5156,384,29,55,322,-6,38,138
11790,211,323,-5481,355,21,96,438,-8,38,136
11800,212,255,-5666,273,40,142,546,-8,38,136
11810,213,159,-5625,336,54,176,610,-8,36,134
11820,214,78,-5680,437,9,152,653,-8,36,134
11830,215,14,-5949,378,-38,62,691,-10,42,142
11840,216,-54,-6099,283,-25,-69,711,-10,42,142
11850,217,-48,-5883,297,20,-223,694,-11,39,135
11860,218,47,-5528,378,35,-366,665,-11,39,135
11870,219,135,-5212,480,46,-490,643,-8,44,134
11880,220,135,-4878,549,89,-601,624,-8,44,134
11890,221,88,-4503,540,144,-682,589,-4,44,136
11900,222,12,-4171,475,209,-736,537,-4,44,136
11910,223,-42,-3882,416,278,-759,494,-6,44,134
11920,224,-114,-3724,328,347,-785,475,-6,44,134
11930,225,-206,-3693,269,435,-864,489,0,42,138
11940,226,-322,-3715,216,530,-989,514,0,42,138
11950,227,-459,-3747,133,624,-1158,545,0,42,142
11960,228,-564,-3787,55,693,-1378,588,0,42,142
11970,229,-632,-3839,-35,742,-1615,643,6,46,130
11980,230,-670,-3907,-85,778,-1835,705,6,46,130
11990,231,-650,-4046,-87,799,-2033,780,9,47,133
12000,232,-548,-4218,-127,802,-2169,866,9,47,133
12010,233,-438,-4367,-140,826,-2254,951,14,50,128
12020,234,-329,-4354,-77,860,-2284,1022,14,50,128
12030,235,-195,-4294,35,859,-2280,1068,10,46,124
12040,236,-89,-4184,126,828,-2182,1090,10,46,124
12050,237,47,-4076,219,781,-2051,1102,22,50,118
12060,238,150,-3959,244,749,-1883,1099,22,50,118
12070,239,160,-3824,287,700,-1699,1100,28,54,112
12080,240,163,-3709,318,670,-1483,1094,28,54,112
12090,241,-20,-3640,196,638,-1323,1092,32,54,122
12100,242,-142,-3591,151,626,-1249,1075,32,54,122
12110,243,-289,-3546,154,611,-1193,1056,32,52,114
12120,244,-349,-3564,78,605,-1155,1019,32,52,114
12130,245,-405,-3536,120,604,-1167,960,37,53,111
12140,246,-392,-3514,190,576,-1200,895,37,53,111
12150,247,-370,-3488,212,552,-1224,822,42,56,106
12160,248,-305,-3502,253,529,-1219,753,42,56,106
12170,249,-232,-3585,251,507,-1177,684,43,53,107
12180,250,-155,-3599,195,494,-1094,624,43,53,107
12190,251,-124,-3518,254,479,-977,568,50,58,102
12200,252,-97,-3449,314,452,-828,504,50,58,102
12210,253,-116,-3414,391,417,-672,440,53,57,97
12220,254,-140,-3361,406,402,-508,369,53,57,97
12230,255,-173,-3325,467,381,-365,305,49,57,97
12240,0,-271,-3293,497,351,-189,260,49,57,97
12250,1,-326,-3318,552,345,-41,210,53,63,99
12260,2,-431,-3347,567,314,75,168,53,63,99
12270,3,-560,-3474,523,295,165,115,53,55,93
12280,4,-673,-3590,528,280,210,53,53,55,93
12290,5,-832,-3744,518,236,235,-15,52,56,98
12300,6,-1035,-3975,608,189,254,-85,52,56,98
12310,7,-1212,-4145,573,121,212,-140,53,59,95
12320,8,-1347,-4216,656,59,107,-226,53,59,95
12330,9,-1386,-4252,785,-63,-18,-306,56,58,98
12340,10,-1330,-4452,862,-189,-180,-361,56,58,98
12350,11,-1215,-4856,830,-317,-326,-362,56,56,98
12360,12,-1121,-5189,738,-386,-445,-347,56,56,98
12370,13,-1027,-5188,854,-446,-520,-357,56,66,94
12380,14,-934,-5073,1061,-575,-569,-391,56,66,94
12390,15,-799,-5256,1089,-756,-606,-409,52,62,98
12400,16,-656,-5590,884,-852,-624,-398,52,62,98
12410,17,-598,-5630,863,-835,-634,-369,50,62,96
12420,18,-474,-5389,991,-836,-640,-363,50,62,96
12430,19,-221,-4965,1152,-902,-626,-354,47,65,99
12440,20,-3,-4522,1301,-1009,-572,-385,47,65,99
12450,21,260,-4178,1417,-1115,-520,-463,52,64,100
12460,22,492,-3949,1433,-1130,-480,-557,52,64,100
12470,23,558,-3752,1445,-1088,-522,-619,49,63,99
12480,24,514,-3687,1296,-1039,-653,-661,49,63,99
12490,25,492,-3702,1099,-956,-813,-710,47,61,105
12500,26,533,-3697,858,-827,-931,-745,47,61,105
12510,27,700,-3677,748,-679,-961,-735,45,61,107
12520,28,846,-3589,738,-517,-903,-700,45,61,107
12530,29,1019,-3503,809,-386,-794,-673,44,60,106
12540,30,1046,-3433,834,-311,-651,-650,44,60,106
12550,31,973,-3491,761,-287,-497,-630,50,68,104
12560,32,714,-3612,647,-257,-303,-607,50,68,104
12570,33,440,-3722,555,-226,-106,-590,45,65,105
12580,34,173,-3743,471,-180,18,-559,45,65,105
12590,35,-98,-3626,498,-162,59,-517,41,65,109
12600,36,-349,-3577,491,-183,38,-481,41,65,109
12610,37,-534,-3573,471,-218,-56,-463,42,68,102
12620,38,-653,-3580,539,-255,-173,-448,42,68,102
12630,39,-741,-3625,519,-280,-271,-432,37,65,105
12640,40,-822,-3669,581,-320,-373,-400,37,65,105
12650,41,-840,-3700,620,-363,-462,-373,42,70,106
12660,42,-811,-3752,496,-383,-572,-362,42,70,106
12670,43,-698,-3794,482,-381,-684,-352,40,70,108
12680,44,-576,-3810,408,-369,-776,-361,40,70,108
12690,45,-469,-3764,397,-326,-866,-362,35,69,111
12700,46,-313,-3711,518,-312,-890,-350,35,69,111
12710,47,-185,-3676,572,-299,-888,-330,35,69,107
12720,48,-67,-3677,581,-296,-873,-326,35,69,107
12730,49,49,-3738,510,-285,-841,-317,32,68,104
12740,50,54,-3800,503,-248,-783,-295,32,68,104
12750,51,23,-3783,505,-208,-727,-278,40,68,106
12760,52,-34,-3753,474,-159,-719,-252,40,68,106
12770,53,-84,-3728,482,-115,-743,-228,34,66,108
12780,54,-132,-3722,498,-78,-792,-207,34,66,108
12790,55,-200,-3778,467,-40,-853,-184,33,69,107
12800,56,-292,-3814,454,7,-926,-160,33,69,107
12810,57,-320,-3876,459,25,-1007,-130,40,74,108
12820,58,-351,-4034,322,34,-1101,-89,40,74,108
12830,59,-384,-4199,196,59,-1214,-47,36,70,102
12840,60,-378,-4336,175,76,-1312,9,36,70,102
12850,61,-300,-4451,227,69,-1395,73,40,78,100
12860,62,-263,-4588,233,53,-1469,146,40,78,100
12870,63,-226,-4709,232,38,-1528,224,44,70,100
12880,64,-149,-4828,248,27,-1563,311,44,70,100
12890,65,-57,-4877,354,17,-1560,395,39,69,95
12900,66,72,-5001,394,-23,-1520,478,39,69,95
12910,67,138,-5265,299,-55,-1459,570,46,72,94
12920,68,120,-5366,145,-9,-1388,644,46,72,94
12930,69,23,-5277,206,41,-1322,685,45,73,97
12940,70,-132,-5358,125,-19,-1338,716,45,73,97
12950,71,-299,-5757,-289,-73,-1452,760,51,71,91
12960,72,-523,-5848,-595,-16,-1658,769,51,71,91
12970,73,-561,-5476,-390,55,-1854,717,51,71,89
12980,74,-459,-4948,-76,-2,-1980,624,51,71,89
12990,75,-260,-4745,37,-86,-2040,531,54,64,84
13000,76,-198,-4794,-125,-87,-2112,485,54,64,84
13010,77,-337,-4869,-437,14,-2261,481,58,70,92
13020,78,-535,-4896,-764,165,-2501,452,58,70,92
13030,79,-648,-4797,-1032,306,-2770,399,60,68,78
13040,80,-652,-4720,-1156,395,-3014,366,60,68,78
13050,81,-494,-4690,-1252,459,-3223,362,62,72,74
13060,82,-246,-4671,-1249,522,-3358,387,62,72,74
13070,83,-27,-4608,-1103,589,-3400,441,63,71,69
13080,84,287,-4554,-934,629,-3378,511,63,71,69
13090,85,530,-4503,-727,636,-3269,588,60,64,66
13100,86,842,-4432,-584,619,-3045,677,60,64,66
13110,87,1120,-4301,-382,611,-2730,770,59,63,61
13120,88,1331,-4161,-339,624,-2358,858,59,63,61
13130,89,1363,-3984,-268,657,-1993,933,62,68,56
13140,90,1231,-3892,-364,693,-1665,987,62,68,56
13150,91,970,-3714,-323,739,-1420,1014,57,65,49
13160,92,704,-3540,-299,738,-1250,1007,57,65,49
13170,93,409,-3414,-247,679,-1131,961,65,57,45
13180,94,248,-3375,-274,584,-1128,880,65,57,45
13190,95,159,-3404,-306,529,-1202,804,63,59,39
13200,96,123,-3376,-413,541,-1292,753,63,59,39
13210,97,185,-3352,-450,562,-1379,697,69,51,41
13220,98,305,-3363,-497,597,-1435,638,69,51,41
13230,99,486,-3399,-501,655,-1433,600,66,52,36
13240,100,617,-3336,-542,727,-1384,581,66,52,36
13250,101,652,-3178,-413,808,-1251,557,68,50,34
13260,102,552,-2963,-198,846,-1007,514,68,50,34
13270,103,333,-2877,-18,802,-740,443,66,46,28
13280,104,201,-2985,81,674,-515,337,66,46,28
13290,105,35,-3274,-18,557,-389,286,70,52,26
13300,106,-102,-3493,-90,555,-374,299,70,52,26
13310,107,-197,-3645,18,519,-383,357,68,50,20
13320,108,-153,-3786,66,449,-306,380,68,50,20
13330,109,-104,-3855,231,384,-149,336,70,52,24
13340,110,-69,-3851,397,303,81,239,70,52,24
13350,111,-23,-3828,454,219,315,134,67,47,19
13360,112,-19,-3808,509,145,486,75,67,47,19
13370,113,-69,-3821,421,60,626,58,68,44,18
13380,114,-146,-3913,373,-4,722,48,68,44,18
13390,115,-251,-4124,321,-46,758,19,65,45,19
13400,116,-361,-4165,423,-44,803,-50,65,45,19
13410,117,-378,-4197,632,-102,888,-153,76,46,22
13420,118,-337,-4261,766,-190,966,-273,76,46,22
13430,119,-186,-4229,910,-269,1065,-403,68,44,24
13440,120,-86,-4149,975,-341,1197,-535,68,44,24
13450,121,-2,-4162,1033,-436,1321,-643,76,46,24
13460,122,-38,-4487,917,-541,1384,-703,76,46,24
13470,123,-147,-4876,703,-580,1395,-744,71,57,27
13480,124,-294,-4985,590,-536,1417,-806,71,57,27
13490,125,-367,-4852,765,-530,1450,-898,79,51,37
13500,126,-286,-4877,927,-628,1461,-994,79,51,37
13510,127,-142,-5015,862,-719,1502,-1058,71,53,33
13520,128,-90,-5176,791,-729,1586,-1093,71,53,33
13530,129,-96,-5303,702,-719,1663,-1092,70,54,40
13540,130,-250,-5414,671,-701,1703,-1086,70,54,40
13550,131,-395,-5372,718,-706,1700,-1085,63,59,43
13560,132,-419,-5189,875,-749,1639,-1098,63,59,43
13570,133,-401,-4870,963,-832,1534,-1126,69,59,47
13580,134,-286,-4484,1041,-890,1402,-1192,69,59,47
13590,135,-134,-4117,1108,-930,1270,-1281,63,67,49
13600,136,-23,-3823,1062,-964,1049,-1401,63,67,49
13610,137,76,-3662,917,-967,821,-1519,60,68,56
13620,138,177,-3585,827,-925,593,-1607,60,68,56
13630,139,169,-3583,666,-827,386,-1638,59,67,55
13640,140,225,-3589,566,-710,239,-1609,59,67,55
13650,141,320,-3708,385,-584,107,-1532,57,73,61
13660,142,356,-3760,205,-428,-41,-1424,57,73,61
13670,143,533,-3763,269,-310,-137,-1342,47,71,61
13680,144,564,-3723,201,-293,-195,-1288,47,71,61
13690,145,807,-3777,272,-340,-245,-1246,40,76,64
13700,146,879,-3864,75,-363,-226,-1199,40,76,64
13710,147,1014,-3964,107,-380,-141,-1149,41,73,61
13720,148,1025,-4040,46,-374,25,-1084,41,73,61
13730,149,1159,-4142,137,-386,228,-1000,39,79,59
13740,150,1201,-4275,208,-398,422,-910,39,79,59
13750,151,1133,-4306,295,-415,647,-802,36,80,64
13760,152,944,-4328,297,-426,907,-701,36,80,64
13770,153,762,-4267,303,-431,1131,-621,36,74,64
13780,154,513,-4206,315,-437,1248,-555,36,74,64
13790,155,326,-4161,326,-442,1273,-507,31,75,71
13800,156,111,-4062,369,-432,1216,-478,31,75,71
13810,157,-74,-3961,432,-416,1100,-473,31,81,73
13820,158,-110,-3882,512,-398,988,-471,31,81,73
13830,159,-196,-3827,522,-388,850,-466,27,79,73
13840,160,-206,-3826,602,-357,704,-452,27,79,73
13850,161,-274,-3758,603,-308,584,-423,27,79,77
13860,162,-198,-3722,644,-262,451,-392,27,79,77
13870,163,-217,-3690,599,-215,336,-346,29,81,73
13880,164,-213,-3690,553,-168,214,-299,29,81,73
13890,165,-193,-3706,581,-120,94,-252,28,82,80
13900,166,-170,-3723,553,-81,15,-201,28,82,80
13910,167,-139,-3721,568,-49,-54,-147,23,77,79
13920,168,-116,-3724,545,-32,-90,-84,23,77,79
13930,169,-150,-3737,534,-26,-130,-22,26,80,80
13940,170,-182,-3729,472,-15,-183,23,26,80,80
13950,171,-272,-3718,410,-26,-257,43,31,77,81
13960,172,-216,-3723,446,-53,-363,40,31,77,81
13970,173,-81,-3829,492,-77,-413,79,30,80,78
13980,174,-39,-3974,513,-65,-428,131,30,80,78
13990,175,-39,-3989,603,-59,-435,185,26,86,78
14000,176,11,-3959,654,-105,-480,228,26,86,78
14010,177,-60,-3916,623,-185,-536,252,29,77,75
14020,178,-57,-3995,545,-249,-624,264,29,77,75
14030,179,-7,-4076,542,-316,-683,276,29,87,75
14040,180,59,-4172,391,-312,-782,289,29,87,75
14050,181,73,-4295,352,-258,-839,301,33,81,77
14060,182,178,-4442,297,-159,-905,343,33,81,77
14070,183,343,-4553,332,-42,-978,411,31,79,79
14080,184,531,-4694,350,45,-1015,490,31,79,79
14090,185,617,-4952,288,104,-988,570,37,85,73
14100,186,596,-5196,25,184,-982,632,37,85,73
14110,187,486,-5181,92,306,-990,676,41,83,71
14120,188,438,-5269,-20,313,-1049,689,41,83,71
14130,189,456,-5376,46,324,-1136,721,42,84,78
14140,190,440,-5467,-14,278,-1292,735,42,84,78
14150,191,589,-5526,-197,233,-1526,737,49,77,75
14160,192,739,-5566,-252,187,-1687,725,49,77,75
14170,193,806,-5560,-373,148,-1804,713,48,72,72
14180,194,938,-5341,-405,206,-1881,714,48,72,72
14190,195,1056,-5022,-339,262,-1932,716,50,80,70
14200,196,1312,-4681,-293,297,-1898,710,50,80,70
14210,197,1477,-4401,-304,335,-1820,701,50,74,68
14220,198,1563,-4184,-261,382,-1695,704,50,74,68
14230,199,1514,-4100,-283,425,-1615,737,56,64,64
14240,200,1390,-4138,-387,503,-1565,786,56,64,64
14250,201,1298,-4047,-383,606,-1530,818,55,69,59
14260,202,1157,-3920,-377,649,-1513,847,55,69,59
14270,203,1066,-3801,-303,653,-1502,868,53,63,57
14280,204,1017,-3567,-227,643,-1471,878,53,63,57
14290,205,868,-3409,-250,615,-1495,880,56,66,50
14300,206,942,-3367,-188,599,-1524,871,56,66,50
14310,207,910,-3424,-248,588,-1554,864,56,62,52
14320,208,771,-3579,-365,608,-1622,854,56,62,52
14330,209,841,-3627,-259,688,-1586,825,62,56,42
14340,210,974,-3586,-144,731,-1466,817,62,56,42
14350,211,985,-3529,-84,743,-1278,820,61,57,37
14360,212,1000,-3526,-65,741,-1073,833,61,57,37
14370,213,1096,-3645,10,728,-827,882,69,61,35
14380,214,861,-3744,-57,755,-531,931,69,61,35
14390,215,769,-3809,25,788,-225,957,62,52,34
14400,216,582,-3873,103,791,33,968,62,52,34
14410,217,293,-3964,115,758,222,973,68,54,36
14420,218,-31,-3986,177,711,323,965,68,54,36
14430,219,-222,-3976,263,663,395,931,66,44,34
14440,220,-273,-3941,348,590,430,889,66,44,34
14450,221,-505,-3910,400,510,379,845,74,40,28
14460,222,-549,-3844,449,452,219,770,74,40,28
14470,223,-523,-3761,527,394,69,693,73,39,33
14480,224,-414,-3723,568,320,-10,608,73,39,33
14490,225,-334,-3648,580,263,-69,519,78,42,28
14500,226,-264,-3547,638,218,-112,420,78,42,28
14510,227,-227,-3435,689,162,-160,316,77,35,33
14520,228,-216,-3380,718,129,-176,212,77,35,33
14530,229,-185,-3305,739,101,-165,111,75,37,25
14540,230,-213,-3279,663,77,-107,8,75,37,25
14550,231,-210,-3329,551,68,-21,-74,81,39,33
14560,232,-227,-3454,429,75,83,-138,81,39,33
14570,233,-256,-3617,294,116,158,-173,72,32,20
14580,234,-372,-3625,259,183,230,-223,72,32,20
14590,235,-387,-3705,342,202,310,-285,82,34,28
14600,236,-450,-3731,271,210,354,-355,82,34,28
14610,237,-496,-3665,356,220,371,-439,71,31,25
14620,238,-506,-3850,394,168,367,-499,71,31,25
14630,239,-447,-4152,262,126,310,-531,72,32,36
14640,240,-288,-4327,246,142,268,-570,72,32,36
14650,241,-68,-4394,433,121,328,-613,79,37,25
14660,242,196,-4479,550,15,476,-642,79,37,25
14670,243,345,-4556,590,-80,691,-677,78,30,24
14680,244,423,-4858,545,-203,942,-695,78,30,24
14690,245,385,-5127,317,-242,1172,-715,70,34,32
14700,246,278,-5246,318,-243,1413,-761,70,34,32
14710,247,151,-5308,390,-318,1658,-820,72,38,30
14720,248,57,-5499,480,-458,1787,-879,72,38,30
14730,249,0,-5752,417,-587,1819,-928,66,38,34
14740,250,-38,-5890,452,-659,1822,-972,66,38,34
14750,251,51,-5738,736,-765,1851,-1019,66,40,38
14760,252,222,-5482,907,-906,1849,-1077,66,40,38
14770,253,457,-5084,1142,-1056,1825,-1132,72,42,42
14780,254,525,-4617,1191,-1198,1747,-1194,72,42,42
14790,255,519,-4235,1180,-1270,1656,-1275,66,44,48
14800,0,497,-3815,1084,-1250,1596,-1365,66,44,48
14810,1,492,-3434,946,-1147,1503,-1468,65,47,53
14820,2,450,-3268,716,-1004,1399,-1539,65,47,53
14830,3,331,-3289,472,-808,1178,-1555,60,48,62
14840,4,-14,-3432,195,-584,893,-1512,60,48,62
14850,5,288,-3586,388,-368,671,-1434,63,53,59
14860,6,317,-3582,366,-226,373,-1365,63,53,59
14870,7,792,-3606,474,-213,253,-1341,56,52,62
14880,8,589,-3605,78,-268,85,-1348,56,52,62
14890,9,982,-3693,225,-346,125,-1322,52,54,62
14900,10,1090,-3829,111,-411,247,-1252,52,54,62
14910,11,1084,-3955,85,-433,358,-1154,47,53,67
14920,12,1217,-4087,118,-422,559,-1048,47,53,67
14930,13,1184,-4186,153,-390,781,-953,48,52,66
14940,14,1041,-4216,185,-341,992,-849,48,52,66
14950,15,845,-4232,304,-289,1184,-732,43,57,69
14960,16,665,-4145,256,-241,1354,-626,43,57,69
14970,17,464,-4097,309,-208,1424,-537,40,56,68
14980,18,246,-4007,308,-201,1402,-472,40,56,68
14990,19,67,-3918,338,-213,1279,-443,37,59,77
15000,20,-71,-3960,343,-241,1092,-432,37,59,77
15010,21,-131,-3897,386,-240,907,-431,38,56,74
15020,22,-97,-3836,505,-238,743,-440,38,56,74
15030,23,11,-3744,587,-229,630,-449,38,54,70
15040,24,61,-3642,608,-214,547,-445,38,54,70
15050,25,161,-3563,620,-193,514,-443,36,58,76
15060,26,166,-3509,651,-163,495,-428,36,58,76
15070,27,82,-3462,585,-135,474,-424,37,59,75
15080,28,59,-3441,569,-102,430,-412,37,59,75
15090,29,5,-3434,662,-82,383,-380,36,50,74
15100,30,-75,-3485,538,-40,321,-332,36,50,74
15110,31,-132,-3490,547,-13,244,-275,37,55,75
15120,32,-199,-3499,584,-25,167,-220,37,55,75
15130,33,-214,-3534,502,-47,54,-146,29,57,77
15140,34,-224,-3552,397,-65,-89,-77,29,57,77
15150,35,-152,-3569,373,-97,-164,1,25,57,75
15160,36,-100,-3608,318,-144,-183,85,25,57,75
15170,37,-66,-3700,349,-176,-207,173,27,55,77
15180,38,-45,-3873,360,-166,-202,265,27,55,77
15190,39,0,-3968,462,-108,-177,363,35,57,77
15200,40,25,-4000,636,-78,-157,443,35,57,77
15210,41,62,-4013,718,-89,-160,511,32,52,74
15220,42,61,-4139,710,-106,-182,564,32,52,74
15230,43,-33,-4264,614,-94,-256,609,29,49,75
15240,44,-77,-4420,560,-54,-364,652,29,49,75
15250,45,-99,-4529,496,-16,-496,681,35,51,73
15260,46,-27,-4676,473,13,-648,697,35,51,73
15270,47,83,-4838,560,53,-781,718,35,51,75
15280,48,225,-5083,463,69,-889,762,35,51,75
15290,49,323,-5393,345,103,-981,825,36,48,74
15300,50,371,-5559,248,182,-1052,872,36,48,74
15310,51,432,-5486,351,241,-1076,901,40,52,74
15320,52,518,-5528,398,223,-1075,937,40,52,74
15330,53,527,-5796,236,213,-1112,994,39,49,71
15340,54,528,-5994,61,276,-1180,1055,39,49,71
15350,55,505,-6051,53,334,-1251,1103,43,47,73
15360,56,436,-5875,16,364,-1362,1130,43,47,73
15370,57,367,-5562,60,363,-1463,1109,46,42,70
15380,58,391,-5163,106,363,-1592,1048,46,42,70
15390,59,469,-4793,117,339,-1687,966,50,40,68
15400,60,613,-4555,58,347,-1707,886,50,40,68
15410,61,672,-4312,2,399,-1728,832,52,42,70
15420,62,754,-4189,-14,465,-1701,804,52,42,70
15430,63,701,-4172,-193,544,-1768,806,54,38,70
15440,64,640,-4126,-241,668,-1852,827,54,38,70
15450,65,557,-4033,-292,776,-1923,849,47,39,63
15460,66,529,-3957,-286,837,-1985,880,47,39,63
15470,67,483,-3923,-372,877,-2047,924,49,37,57
15480,68,463,-3936,-433,901,-2111,964,49,37,57
15490,69,423,-4001,-422,920,-2165,1003,56,38,60
15500,70,567,-4239,-383,911,-2174,1048,56,38,60
15510,71,633,-4462,-404,929,-2112,1107,52,36,48
15520,72,811,-4494,-208,979,-1944,1139,52,36,48
15530,73,977,-4364,23,978,-1670,1147,57,31,47
15540,74,1130,-4175,142,888,-1383,1165,57,31,47
15550,75,1105,-4041,16,747,-1109,1231,56,34,38
15560,76,1002,-3949,-50,659,-794,1317,56,34,38
15570,77,675,-3804,-106,606,-497,1380,58,28,36
15580,78,237,-3754,-177,527,-347,1397,58,28,36
15590,79,-238,-3699,-237,460,-372,1344,63,25,37
15600,80,-457,-3683,-150,396,-413,1256,63,25,37
15610,81,-756,-3619,17,349,-512,1160,62,24,36
15620,82,-589,-3469,236,338,-704,1035,62,24,36
15630,83,-336,-3336,367,274,-844,929,66,18,38
15640,84,-35,-3277,274,234,-958,844,66,18,38
15650,85,129,-3200,319,238,-998,766,66,24,42
15660,86,276,-3115,286,276,-978,689,66,24,42
15670,87,290,-2998,344,295,-877,624,74,18,30
15680,88,161,-2944,406,277,-714,572,74,18,30
15690,89,66,-2982,451,250,-518,521,72,20,32
15700,90,-19,-3077,480,212,-269,477,72,20,32
15710,91,-208,-3250,459,192,-43,437,70,14,28
15720,92,-363,-3358,476,197,126,402,70,14,28
15730,93,-585,-3430,480,213,255,358,73,13,33
15740,94,-720,-3508,477,231,339,294,73,13,33
15750,95,-798,-3600,585,240,398,228,72,16,28
15760,96,-804,-3709,582,230,408,169,72,16,28
15770,97,-857,-3793,666,216,387,114,76,20,28
15780,98,-907,-3815,690,190,363,51,76,20,28
15790,99,-980,-3843,737,146,350,-30,73,15,31
15800,100,-1080,-3874,717,106,333,-105,73,15,31
15810,101,-1151,-4047,667,69,311,-179,72,16,36
15820,102,-1142,-4061,757,61,314,-280,72,16,36
15830,103,-1179,-4182,768,15,302,-390,72,16,34
15840,104,-1010,-4293,864,7,245,-491,72,16,34
15850,105,-712,-4397,997,-18,204,-551,72,20,32
15860,106,-357,-4373,1049,-48,249,-604,72,20,32
15870,107,-69,-4372,1160,-83,419,-648,71,15,29
15880,108,44,-4585,1064,-150,642,-676,71,15,29
15890,109,-23,-4932,862,-160,869,-704,71,19,29
15900,110,-160,-5047,725,-101,1094,-739,71,19,29
15910,111,-275,-4968,775,-87,1289,-780,71,13,37
15920,112,-381,-5048,833,-147,1393,-821,71,13,37
15930,113,-518,-5300,675,-210,1419,-859,67,23,37
15940,114,-573,-5483,583,-210,1433,-886,67,23,37
15950,115,-628,-5499,673,-221,1432,-910,69,17,33
15960,116,-581,-5288,936,-267,1383,-956,69,17,33
15970,117,-470,-5093,1275,-385,1310,-1003,69,27,41
15980,118,-347,-4802,1391,-535,1217,-1023,69,27,41
15990,119,-285,-4423,1544,-666,1108,-1057,67,23,45
16000,120,-233,-4115,1598,-793,897,-1121,67,23,45
16010,121,-163,-3991,1434,-870,689,-1214,70,26,44
16020,122,-159,-4042,1106,-853,463,-1293,70,26,44
16030,123,-49,-4031,837,-748,267,-1334,65,29,51
16040,124,122,-4059,742,-584,52,-1328,65,29,51
16050,125,156,-4027,583,-404,-142,-1314,59,39,49
16060,126,343,-4008,406,-224,-222,-1296,59,39,49
16070,127,537,-3858,482,-113,-253,-1292,56,36,54
16080,128,819,-3709,568,-79,-250,-1308,56,36,54
16090,129,968,-3562,461,-118,-176,-1347,52,36,52
16100,130,1131,-3468,476,-166,-69,-1380,52,36,52
16110,131,1196,-3441,424,-218,87,-1396,54,40,60
16120,132,1082,-3472,331,-269,267,-1389,54,40,60
16130,133,990,-3577,285,-273,462,-1358,48,46,50
16140,134,702,-3695,158,-227,598,-1317,48,46,50
16150,135,596,-3769,333,-168,687,-1269,44,44,56
16160,136,549,-3842,246,-150,850,-1215,44,44,56
16170,137,391,-3935,291,-174,899,-1158,48,40,48
16180,138,112,-4019,63,-186,910,-1097,48,40,48
16190,139,191,-4029,366,-196,932,-1027,40,42,58
16200,140,222,-4000,445,-251,1037,-955,40,42,58
16210,141,179,-3988,482,-309,1048,-888,42,42,60
16220,142,114,-3916,540,-330,1048,-831,42,42,60
16230,143,-33,-3854,529,-363,1068,-792,40,48,56
16240,144,-166,-3752,525,-384,1023,-745,40,48,56
16250,145,-228,-3713,489,-396,926,-706,36,48,60
16260,146,-320,-3747,477,-381,805,-674,36,48,60
16270,147,-340,-3683,500,-341,663,-661,33,47,63
16280,148,-364,-3677,526,-322,496,-652,33,47,63
16290,149,-312,-3656,553,-297,350,-643,35,49,63
16300,150,-369,-3571,529,-274,215,-631,35,49,63
16310,151,-317,-3545,545,-269,129,-608,33,55,67
16320,152,-304,-3601,607,-279,63,-561,33,55,67
16330,153,-294,-3684,523,-261,-30,-502,31,51,65
16340,154,-284,-3776,500,-248,-93,-436,31,51,65
16350,155,-238,-3894,545,-238,-105,-377,29,49,65
16360,156,-233,-3940,534,-220,-175,-331,29,49,65
16370,157,-207,-3961,573,-190,-215,-285,28,50,58
16380,158,-196,-3957,535,-161,-221,-247,28,50,58
16390,159,-100,-3878,580,-139,-235,-205,28,46,60
16400,160,-7,-3819,684,-148,-234,-149,28,46,60
16410,161,100,-3788,726,-136,-221,-84,29,53,59
16420,162,126,-3806,748,-87,-208,-7,29,53,59
16430,163,9,-3728,809,-38,-210,79,28,46,64
16440,164,-127,-3734,792,-3,-255,156,28,46,64
16450,165,-270,-3792,668,9,-350,240,32,52,64
16460,166,-346,-3877,554,30,-480,316,32,52,64
16470,167,-314,-4022,406,44,-635,389,25,55,67
16480,168,-188,-4281,347,59,-793,489,25,55,67
16490,169,-40,-4684,168,77,-939,623,31,49,59
16500,170,115,-5198,-49,126,-1078,779,31,49,59
16510,171,239,-5500,-192,227,-1197,930,34,48,58
16520,172,351,-5618,-118,322,-1282,1065,34,48,58
16530,173,412,-5862,-8,345,-1357,1198,34,48,66
16540,174,474,-6247,-80,373,-1449,1322,34,48,66
16550,175,504,-6443,-115,443,-1535,1425,32,48,66
16560,176,500,-6248,14,518,-1595,1453,32,48,66
16570,177,533,-5811,269,522,-1613,1422,38,44,54
16580,178,608,-5393,491,499,-1645,1345,38,44,54
16590,179,572,-5057,480,478,-1708,1252,39,43,51
16600,180,471,-4862,288,493,-1837,1142,39,43,51
16610,181,366,-4749,209,565,-1966,1041,44,46,48
16620,182,247,-4735,145,684,-2055,975,44,46,48
16630,183,128,-4773,11,852,-2141,953,46,42,46
16640,184,-66,-4757,-124,1048,-2294,970,46,42,46
16650,185,-378,-4703,-292,1218,-2522,1002,47,39,45
16660,186,-557,-4549,-348,1344,-2800,999,47,39,45
16670,187,-612,-4401,-298,1393,-3096,959,45,39,39
16680,188,-431,-4335,-290,1374,-3367,889,45,39,39
16690,189,-145,-4301,-262,1323,-3520,820,48,38,34
16700,190,224,-4322,-239,1261,-3478,788,48,38,34
16710,191,460,-4281,-260,1224,-3310,787,45,33,27
16720,192,643,-4233,-188,1223,-3007,794,45,33,27
16730,193,743,-4146,-103,1227,-2649,818,37,33,27
16740,194,752,-3991,-96,1238,-2253,849,37,33,27
16750,195,661,-3878,-81,1227,-1895,889,37,29,15
16760,196,474,-3796,-181,1210,-1587,940,37,29,15
16770,197,226,-3733,-240,1177,-1392,989,37,25,9
16780,198,8,-3671,-304,1131,-1298,1021,37,25,9
16790,199,-168,-3673,-402,1049,-1298,1043,33,29,9
16800,200,-215,-3662,-417,971,-1362,1048,33,29,9
16810,201,-192,-3663,-430,895,-1427,1039,36,20,4
16820,202,-83,-3670,-382,861,-1491,1036,36,20,4
16830,203,74,-3693,-312,852,-1493,1044,40,18,4
16840,204,241,-3669,-270,856,-1440,1062,40,18,4
16850,205,431,-3614,-100,877,-1328,1084,32,18,-6
16860,206,543,-3568,-16,893,-1153,1089,32,18,-6
16870,207,638,-3500,147,885,-936,1086,29,17,-1
16880,208,692,-3468,307,854,-688,1080,29,17,-1
16890,209,612,-3502,441,796,-428,1072,33,15,-5
16900,210,515,-3480,528,743,-183,1042,33,15,-5
16910,211,376,-3485,681,664,61,997,32,14,-14
16920,212,265,-3525,784,555,287,945,32,14,-14
16930,213,153,-3578,823,458,471,899,40,8,-6
16940,214,79,-3584,833,363,614,828,40,8,-6
16950,215,28,-3573,901,288,753,735,35,5,-7
16960,216,-179,-3539,912,210,864,622,35,5,-7
16970,217,-412,-3490,903,149,907,469,43,3,-5
16980,218,-527,-3507,932,52,901,312,43,3,-5
16990,219,-587,-3563,884,-28,824,196,40,4,-10
17000,220,-670,-3668,820,-90,697,88,40,4,-10
17010,221,-776,-3845,800,-109,563,-8,38,2,-10
17020,222,-945,-3892,789,-62,405,-98,38,2,-10
17030,223,-1059,-3995,935,-18,211,-178,48,4,-4
17040,224,-1109,-4078,1031,-16,-11,-252,48,4,-4
17050,225,-1156,-4235,1210,-62,-184,-342,46,2,-4
17060,226,-1086,-4524,1245,-154,-264,-429,46,2,-4
17070,227,-1009,-4764,1279,-235,-347,-491,50,4,-8
17080,228,-920,-4762,1352,-292,-384,-560,50,4,-8
17090,229,-744,-4560,1580,-401,-307,-681,51,9,-3
17100,230,-502,-4414,1794,-582,-199,-782,51,9,-3
17110,231,-259,-4537,1840,-761,-88,-825,38,4,-2
17120,232,-170,-4775,1787,-862,49,-844,38,4,-2
17130,233,-213,-4990,1702,-847,223,-838,39,7,-3
17140,234,-421,-5017,1670,-859,312,-814,39,7,-3
17150,235,-655,-4866,1605,-903,307,-827,38,14,-4
17160,236,-783,-4488,1566,-971,290,-849,38,14,-4
17170,237,-658,-3973,1498,-1071,200,-886,37,9,-3
17180,238,-392,-3536,1490,-1149,23,-917,37,9,-3
17190,239,-42,-3236,1526,-1191,-175,-947,37,23,-1
17200,240,237,-3090,1377,-1177,-350,-973,37,23,-1
17210,241,384,-3091,1181,-1095,-484,-1041,36,22,-2
17220,242,389,-3144,1056,-984,-566,-1095,36,22,-2
17230,243,457,-3299,1029,-923,-609,-1112,28,20,0
17240,244,549,-3507,987,-895,-598,-1055,28,20,0
17250,245,628,-3683,889,-835,-549,-976,21,25,5
17260,246,683,-3771,893,-754,-443,-918,21,25,5
17270,247,686,-3811,843,-695,-284,-892,19,31,5
17280,248,724,-3877,831,-679,-140,-894,19,31,5
17290,249,660,-3941,781,-670,-28,-910,20,30,4
17300,250,630,-3997,755,-671,59,-913,20,30,4
17310,251,530,-3999,697,-694,114,-911,18,38,2
17320,252,426,-4059,684,-718,126,-897,18,38,2
17330,253,338,-4126,737,-739,135,-883,17,31,9
17340,254,333,-4219,753,-754,157,-865,17,31,9
17350,255,254,-4289,686,-742,187,-836,14,34,14
17360,0,216,-4285,792,-711,186,-809,14,34,14
17370,1,192,-4264,779,-704,215,-779,16,38,8
17380,2,141,-4242,717,-682,163,-760,16,38,8
17390,3,93,-4194,698,-641,151,-753,12,38,8
17400,4,225,-4125,827,-583,164,-732,12,38,8
17410,5,143,-4038,811,-541,145,-728,7,41,13
17420,6,15,-3983,763,-522,152,-725,7,41,13
17430,7,-103,-3929,720,-467,165,-718,7,37,13
17440,8,-166,-3927,772,-401,138,-696,7,37,13
17450,9,-343,-3835,714,-342,85,-661,7,37,17
17460,10,-372,-3820,704,-278,-59,-634,7,37,17
17470,11,-480,-3747,661,-198,-223,-605,4,42,20
17480,12,-458,-3697,626,-136,-373,-574,4,42,20
17490,13,-414,-3666,646,-95,-545,-544,3,43,15
17500,14,-235,-3689,644,-78,-661,-531,3,43,15
17510,15,-65,-3691,615,-50,-728,-521,1,39,19
17520,16,99,-3705,547,-6,-765,-478,1,39,19
17530,17,192,-3731,536,33,-762,-420,1,45,21
17540,18,246,-3799,537,51,-675,-361,1,45,21
17550,19,271,-3855,542,87,-597,-276,-1,39,21
17560,20,289,-3850,535,123,-538,-197,-1,39,21
17570,21,243,-3855,515,143,-466,-125,-2,42,16
17580,22,160,-3854,530,132,-436,-55,-2,42,16
17590,23,106,-3917,496,115,-457,8,-13,43,11
17600,24,53,-3997,454,102,-487,80,-13,43,11
17610,25,40,-4072,412,81,-523,156,-6,38,16
17620,26,28,-4182,394,62,-595,234,-6,38,16
17630,27,105,-4294,465,33,-642,308,-4,42,16
17640,28,111,-4499,437,6,-692,397,-4,42,16
17650,29,148,-4763,397,-16,-729,489,-6,40,18
17660,30,146,-4916,315,-26,-752,586,-6,40,18
17670,31,117,-5019,313,-29,-779,671,-4,42,16
17680,32,88,-5202,259,-69,-839,758,-4,42,16
17690,33,-17,-5602,119,-115,-942,858,-10,44,14
17700,34,-138,-5969,-105,-106,-1100,932,-10,44,14
17710,35,-237,-6008,-150,-75,-1288,958,-5,45,19
17720,36,-246,-5814,-76,-85,-1460,941,-5,45,19
17730,37,-235,-5486,52,-112,-1639,883,-5,49,17
17740,38,-161,-5146,144,-137,-1827,794,-5,49,17
17750,39,-105,-4818,158,-130,-2001,698,-9,47,17
17760,40,-56,-4611,57,-86,-2142,614,-9,47,17
17770,41,-46,-4440,-123,-6,-2267,558,0,46,16
17780,42,-76,-4322,-337,109,-2405,536,0,46,16
17790,43,-167,-4217,-509,232,-2588,537,-3,45,15
17800,44,-234,-4137,-672,329,-2811,546,-3,45,15
17810,45,-289,-4123,-825,411,-3044,557,-11,39,19
17820,46,-248,-4191,-984,491,-3247,581,-11,39,19
17830,47,-108,-4290,-992,564,-3371,620,-9,43,19
17840,48,104,-4365,-917,639,-3406,685,-9,43,19
17850,49,348,-4375,-791,718,-3358,747,-11,49,17
17860,50,619,-4343,-723,777,-3234,821,-11,49,17
17870,51,831,-4235,-601,820,-3059,895,-18,40,14
17880,52,966,-4144,-589,854,-2784,969,-18,40,14
17890,53,1056,-4093,-494,896,-2429,1037,-19,47,15
17900,54,909,-4031,-500,930,-2101,1113,-19,47,15
17910,55,801,-3960,-480,959,-1761,1172,-21,41,11
17920,56,592,-3872,-465,955,-1456,1224,-21,41,11
17930,57,393,-3830,-426,940,-1220,1266,-18,40,8
17940,58,147,-3825,-498,920,-1081,1284,-18,40,8
17950,59,-22,-3803,-466,896,-1009,1286,-18,44,10
17960,60,-201,-3793,-386,883,-1002,1268,-18,44,10
17970,61,-327,-3777,-345,862,-1063,1241,-10,38,6
17980,62,-263,-3786,-309,850,-1128,1217,-10,38,6
17990,63,-204,-3875,-255,838,-1148,1206,-19,37,5
18000,64,-170,-3848,-208,862,-1158,1196,-19,37,5
18010,65,-119,-3847,-48,880,-1139,1184,-12,34,0
18020,66,-193,-3860,49,883,-1078,1167,-12,34,0
18030,67,-143,-3903,171,876,-972,1156,-12,38,0
18040,68,-151,-3947,254,866,-868,1138,-12,38,0
18050,69,-149,-3971,305,840,-743,1104,-8,34,0
18060,70,-190,-3973,342,809,-637,1063,-8,34,0
18070,71,-258,-3927,419,767,-528,984,-11,33,-1
18080,72,-303,-3916,585,678,-434,901,-11,33,-1
18090,73,-482,-3959,557,590,-374,776,-9,27,-9
18100,74,-633,-4089,587,440,-415,716,-9,27,-9
18110,75,-671,-4096,520,400,-485,630,-4,28,-4
18120,76,-678,-4081,547,361,-598,543,-4,28,-4
18130,77,-665,-4033,597,300,-700,459,-10,32,-6
18140,78,-592,-3993,573,271,-789,357,-10,32,-6
18150,79,-564,-4092,550,229,-909,266,-10,34,-18
18160,80,-445,-4225,501,220,-1062,181,-10,34,-18
18170,81,-300,-4315,395,249,-1181,108,-11,33,-7
18180,82,-65,-4258,562,320,-1211,18,-11,33,-7
18190,83,68,-4327,673,331,-1184,-50,-11,33,-13
18200,84,178,-4307,787,345,-1135,-139,-11,33,-13
18210,85,251,-4412,935,336,-1069,-212,-12,34,-14
18220,86,258,-4672,1038,349,-940,-252,-12,34,-14
18230,87,192,-4707,1098,327,-652,-290,-23,29,-17
18240,88,150,-4492,1157,256,-319,-353,-23,29,-17
18250,89,208,-4240,1376,75,12,-434,-21,23,-15
18260,90,212,-4112,1347,-154,302,-530,-21,23,-15
18270,91,195,-4242,1271,-295,491,-588,-23,27,-19
18280,92,26,-4350,1163,-314,638,-587,-23,27,-19
18290,93,-296,-4584,1107,-364,672,-560,-20,30,-18
18300,94,-626,-4788,950,-380,629,-562,-20,30,-18
18310,95,-775,-4820,973,-423,530,-620,-23,27,-13
18320,96,-717,-4626,1116,-491,361,-729,-23,27,-13
18330,97,-369,-4245,1412,-579,137,-848,-26,28,-16
18340,98,78,-3818,1625,-661,-62,-935,-26,28,-16
18350,99,460,-3455,1804,-747,-184,-993,-22,34,-20
18360,100,663,-3305,1758,-823,-271,-1053,-22,34,-20
18370,101,745,-3308,1620,-844,-303,-1105,-24,32,-10
18380,102,638,-3367,1331,-846,-310,-1147,-24,32,-10
18390,103,566,-3416,1106,-812,-320,-1189,-27,33,-15
18400,104,572,-3466,903,-764,-288,-1213,-27,33,-15
18410,105,681,-3467,719,-671,-187,-1195,-34,30,-8
18420,106,714,-3417,644,-557,-70,-1159,-34,30,-8
18430,107,747,-3400,701,-494,37,-1123,-33,33,-5
18440,108,716,-3472,682,-506,142,-1114,-33,33,-5
18450,109,654,-3578,715,-552,230,-1119,-39,33,-9
18460,110,548,-3733,731,-607,292,-1116,-39,33,-9
18470,111,418,-3825,728,-672,354,-1102,-41,37,-3
18480,112,328,-3926,775,-746,413,-1093,-41,37,-3
18490,113,215,-3979,820,-808,435,-1081,-44,36,-10
18500,114,101,-4068,764,-887,436,-1094,-44,36,-10
18510,115,53,-4064,723,-896,419,-1101,-40,36,0
18520,116,73,-3978,829,-899,384,-1104,-40,36,0
18530,117,87,-3968,802,-929,328,-1099,-39,39,-3
18540,118,141,-4010,792,-938,273,-1088,-39,39,-3
18550,119,246,-4080,760,-910,262,-1058,-48,38,-4
18560,120,249,-4139,664,-854,265,-1042,-48,38,-4
18570,121,228,-4051,523,-741,256,-1019,-47,35,1
18580,122,200,-3940,567,-646,188,-986,-47,35,1
18590,123,215,-3855,463,-578,127,-967,-46,40,4
18600,124,295,-3800,595,-497,-8,-963,-46,40,4
18610,125,243,-3823,517,-431,-102,-947,-52,38,8
18620,126,412,-3821,648,-318,-153,-940,-52,38,8
18630,127,637,-3727,769,-220,-141,-904,-51,39,5
18640,128,736,-3679,780,-186,-96,-847,-51,39,5
18650,129,747,-3707,690,-176,-36,-776,-60,36,4
18660,130,824,-3797,569,-177,79,-677,-60,36,4
18670,131,730,-3847,490,-143,205,-576,-62,36,6
18680,132,689,-3846,449,-107,307,-485,-62,36,6
18690,133,660,-3898,540,-90,341,-401,-63,37,5
18700,134,553,-4002,483,-64,385,-307,-63,37,5
18710,135,555,-4028,572,-44,440,-222,-58,40,6
18720,136,595,-3979,615,-44,541,-162,-58,40,6
18730,137,556,-3868,646,-54,621,-102,-63,35,1
18740,138,440,-3799,667,-69,689,-42,-63,35,1
18750,139,320,-3745,735,-76,674,11,-59,35,3
18760,140,180,-3744,741,-79,599,67,-59,35,3
18770,141,88,-3847,771,-96,510,124,-57,41,3
18780,142,78,-4036,723,-113,438,173,-57,41,3
18790,143,131,-4230,701,-105,363,228,-58,36,4
18800,144,153,-4420,650,-57,291,296,-58,36,4
18810,145,152,-4491,664,-25,258,391,-57,33,3
18820,146,179,-4612,678,-50,188,493,-57,33,3
18830,147,155,-4786,562,-74,126,587,-52,40,2
18840,148,49,-4837,507,-86,73,663,-52,40,2
18850,149,-176,-4818,534,-104,-53,694,-50,38,6
18860,150,-271,-4863,564,-119,-223,707,-50,38,6
18870,151,-378,-4887,596,-142,-430,701,-47,37,1
18880,152,-436,-4806,580,-131,-696,678,-47,37,1
18890,153,-527,-4575,615,-128,-946,637,-48,44,2
18900,154,-586,-4348,589,-155,-1176,591,-48,44,2
18910,155,-686,-4151,409,-172,-1410,538,-46,42,0
18920,156,-807,-3990,214,-175,-1691,497,-46,42,0
18930,157,-823,-4002,35,-196,-2010,481,-51,41,5
18940,158,-658,-4195,-317,-222,-2362,501,-51,41,5
18950,159,-391,-4423,-624,-194,-2692,539,-55,41,9
18960,160,-72,-4525,-710,-133,-2972,586,-55,41,9
18970,161,310,-4572,-706,-85,-3173,658,-46,40,12
18980,162,648,-4578,-716,-27,-3266,731,-46,40,12
18990,163,1019,-4523,-541,44,-3199,814,-55,41,17
19000,164,1282,-4555,-329,116,-3020,921,-55,41,17
19010,165,1423,-4658,-221,174,-2714,1048,-49,45,19
19020,166,1558,-4778,-198,274,-2370,1180,-49,45,19
19030,167,1518,-4732,-99,419,-1992,1278,-60,42,20
19040,168,1344,-4492,7,525,-1648,1331,-60,42,20
19050,169,1133,-4245,78,532,-1348,1366,-52,48,26
19060,170,662,-4076,15,506,-1175,1361,-52,48,26
19070,171,323,-3974,60,497,-1062,1315,-46,44,26
19080,172,1,-3880,33,462,-1044,1233,-46,44,26
19090,173,-298,-3836,23,414,-1135,1145,-43,45,19
19100,174,-481,-3810,23,347,-1328,1059,-43,45,19
19110,175,-493,-3786,61,300,-1504,973,-38,46,28
19120,176,-453,-3776,-4,259,-1723,892,-38,46,28
19130,177,-363,-3777,-24,231,-1901,819,-40,50,24
19140,178,-192,-3764,-142,214,-2011,780,-40,50,24
19150,179,-144,-3822,-135,226,-1984,781,-39,45,19
19160,180,65,-3839,-97,274,-1857,804,-39,45,19
19170,181,88,-3902,-138,340,-1672,860,-36,44,28
19180,182,173,-3875,-145,418,-1447,912,-36,44,28
19190,183,102,-3870,-104,459,-1191,978,-36,44,28
19200,184,99,-3886,-101,508,-923,1047,-36,44,28
19210,185,19,-3921,-95,560,-656,1109,-34,48,24
19220,186,-198,-3942,-111,599,-463,1146,-34,48,24
19230,187,-310,-3881,82,604,-311,1167,-34,46,20
19240,188,-528,-3827,162,575,-185,1165,-34,46,20
19250,189,-608,-3827,203,541,-90,1136,-31,47,21
19260,190,-700,-3853,176,524,-62,1090,-31,47,21
19270,191,-791,-3860,196,499,-107,1036,-28,48,18
19280,192,-863,-3876,168,468,-157,970,-28,48,18
19290,193,-917,-3896,240,445,-247,887,-22,42,12
19300,194,-989,-3960,223,409,-364,789,-22,42,12
19310,195,-1033,-4028,273,398,-520,665,-14,44,12
19320,196,-1027,-4171,233,368,-657,537,-14,44,12
19330,197,-922,-4229,282,363,-796,411,-19,47,7
19340,198,-754,-4311,392,330,-920,307,-19,47,7
19350,199,-501,-4343,438,314,-996,214,-19,45,7
19360,200,-117,-4171,603,313,-970,95,-19,45,7
19370,201,347,-4125,862,277,-774,-26,-17,47,11
19380,202,656,-4274,895,201,-519,-111,-17,47,11
19390,203,730,-4587,732,203,-244,-135,-17,41,9
19400,204,649,-4775,668,305,106,-135,-17,41,9
19410,205,414,-4728,764,396,528,-137,-20,40,6
19420,206,197,-4710,845,359,885,-139,-20,40,6
19430,207,68,-4905,844,208,1217,-165,-24,38,4
19440,208,-42,-5129,730,81,1530,-222,-24,38,4
19450,209,-229,-5248,754,9,1756,-281,-20,40,2
19460,210,-473,-5185,901,-83,1817,-341,-20,40,2
19470,211,-664,-4933,1112,-232,1727,-430,-15,41,5
19480,212,-692,-4612,1241,-421,1518,-543,-15,41,5
19490,213,-600,-4207,1431,-622,1190,-665,-16,38,0
19500,214,-505,-3695,1550,-803,757,-805,-16,38,0
19510,215,-249,-3338,1591,-975,278,-935,-13,39,1
19520,216,-45,-3150,1346,-1070,-194,-1047,-13,39,1
19530,217,365,-3101,1035,-1031,-522,-1146,-23,39,1
19540,218,850,-3225,597,-858,-623,-1190,-23,39,1
19550,219,1241,-3324,262,-607,-505,-1122,-22,38,8
19560,220,1347,-3370,-2,-335,-268,-961,-22,38,8
19570,221,1460,-3517,-29,-171,83,-762,-21,39,13
19580,222,1402,-3754,-60,-110,479,-611,-21,39,13
19590,223,1306,-4045,36,-124,909,-544,-26,38,14
19600,224,1161,-4316,86,-191,1320,-548,-26,38,14
19610,225,853,-4493,86,-268,1649,-566,-27,39,11
19620,226,500,-4557,98,-347,1856,-587,-27,39,11
19630,227,140,-4477,156,-435,1915,-602,-21,39,9
19640,228,-129,-4327,247,-517,1827,-629,-21,39,9
19650,229,-243,-4175,319,-571,1627,-656,-23,39,11
19660,230,-218,-4039,462,-618,1405,-690,-23,39,11
19670,231,-99,-3950,563,-677,1223,-705,-25,39,9
19680,232,29,-3907,639,-713,1142,-706,-25,39,9
19690,233,141,-3863,673,-734,1169,-699,-22,40,10
19700,234,148,-3793,611,-726,1275,-683,-22,40,10
19710,235,144,-3795,525,-690,1417,-657,-24,40,10
19720,236,76,-3772,475,-615,1562,-627,-24,40,10
19730,237,-21,-3745,445,-519,1686,-607,-23,37,13
19740,238,-165,-3686,463,-430,1777,-594,-23,37,13
19750,239,-286,-3612,508,-366,1823,-592,-20,38,20
19760,240,-469,-3628,568,-302,1835,-613,-20,38,20
19770,241,-662,-3652,608,-263,1802,-646,-20,40,10
19780,242,-794,-3684,609,-212,1711,-691,-20,40,10
19790,243,-956,-3742,600,-168,1582,-748,-17,43,15
19800,244,-1056,-3742,586,-138,1434,-815,-17,43,15
19810,245,-1125,-3775,619,-144,1235,-878,-16,44,10
19820,246,-1150,-3797,615,-168,992,-920,-16,44,10
19830,247,-1129,-3862,680,-200,748,-960,-19,45,13
19840,248,-1056,-3957,554,-236,483,-990,-19,45,13
19850,249,-915,-3998,596,-237,269,-1020,-21,43,19
19860,250,-850,-4176,537,-266,118,-1053,-21,43,19
19870,251,-733,-4225,330,-201,-160,-1089,-22,34,16
19880,252,-466,-4169,449,-101,-309,-1121,-22,34,16
19890,253,-51,-4057,690,-53,-348,-1152,-29,45,13
19900,254,405,-4054,990,-71,-322,-1142,-29,45,13
19910,255,795,-4316,1043,-139,-103,-1068,-32,38,10
19920,0,934,-4617,1089,-128,227,-943,-32,38,10
19930,1,800,-4800,1023,-61,623,-795,-34,44,14
19940,2,581,-4840,863,-13,968,-667,-34,44,14
19950,3,222,-4786,627,10,1100,-572,-37,35,17
19960,4,-89,-4739,490,3,1047,-512,-37,35,17
19970,5,-275,-4726,406,-13,830,-471,-37,35,19
19980,6,-291,-4778,515,-35,579,-421,-37,35,19
19990,7,-215,-4897,551,-95,366,-352,-36,36,18
20000,8,-72,-5144,462,-162,181,-240,-36,36,18
20010,9,44,-5182,384,-172,100,-135,-31,41,15
20020,10,195,-5026,429,-157,104,-63,-31,41,15
20030,11,377,-4799,589,-153,166,-12,-34,38,14
20040,12,527,-4687,662,-170,242,57,-34,38,14
20050,13,558,-4741,597,-178,310,155,-39,37,15
20060,14,512,-4853,422,-172,315,265,-39,37,15
20070,15,418,-4853,211,-141,250,375,-35,39,15
20080,16,291,-4726,101,-102,119,465,-35,39,15
20090,17,242,-4536,23,-74,-61,540,-39,39,17
20100,18,204,-4353,18,-43,-222,584,-39,39,17
20110,19,233,-4206,82,-4,-342,610,-35,41,15
20120,20,236,-4085,115,45,-430,629,-35,41,15
20130,21,272,-4042,127,109,-513,656,-33,41,17
20140,22,235,-3998,42,186,-617,691,-33,41,17
20150,23,213,-3973,-27,278,-752,736,-33,35,15
20160,24,187,-3996,-43,357,-921,797,-33,35,15
20170,25,104,-4012,-107,418,-1104,872,-34,38,12
20180,26,78,-4025,-68,462,-1291,951,-34,38,12
20190,27,56,-4060,-11,491,-1446,1037,-27,41,15
20200,28,134,-4152,57,505,-1541,1120,-27,41,15
20210,29,212,-4198,200,501,-1599,1198,-35,39,13
20220,30,326,-4322,257,488,-1611,1278,-35,39,13
20230,31,356,-4423,244,489,-1601,1346,-28,40,18
20240,32,384,-4488,302,513,-1579,1397,-28,40,18
20250,33,379,-4465,314,534,-1514,1431,-35,39,17
20260,34,365,-4467,381,570,-1414,1442,-35,39,17
20270,35,345,-4397,401,611,-1277,1427,-33,39,17
20280,36,246,-4274,374,640,-1140,1404,-33,39,17
20290,37,182,-4122,433,658,-1019,1360,-33,39,19
20300,38,64,-3984,453,666,-927,1314,-33,39,19
20310,39,-37,-3883,453,674,-879,1262,-29,35,25
20320,40,-294,-3838,392,684,-863,1230,-29,35,25
20330,41,-316,-3774,383,699,-924,1197,-28,40,12
20340,42,-264,-3733,400,670,-987,1188,-28,40,12
20350,43,-237,-3701,388,657,-1068,1180,-31,35,13
20360,44,-538,-3692,314,671,-1143,1162,-31,35,13
20370,45,-614,-3636,347,683,-1221,1113,-29,31,15
20380,46,-542,-3584,348,666,-1218,1057,-29,31,15
20390,47,-458,-3558,270,680,-1088,1007,-27,37,15
20400,48,-400,-3502,345,711,-977,960,-27,37,15
20410,49,-254,-3441,457,703,-843,937,-24,36,12
20420,50,-180,-3448,517,703,-618,911,-24,36,12
20430,51,-223,-3389,580,731,-463,863,-36,32,10
20440,52,-351,-3359,665,712,-354,822,-36,32,10
20450,53,-467,-3395,669,685,-221,762,-26,32,12
20460,54,-505,-3481,701,655,-139,714,-26,32,12
20470,55,-684,-3528,568,659,-67,657,-24,32,14
20480,56,-797,-3548,587,657,-17,575,-24,32,14
20490,57,-945,-3594,561,669,-3,475,-26,30,10
20500,58,-1027,-3589,688,673,-29,361,-26,30,10
20510,59,-1141,-3668,797,615,-121,256,-22,34,4
20520,60,-1015,-3872,849,536,-261,179,-22,34,4
20530,61,-948,-3978,892,493,-391,112,-27,31,9
20540,62,-772,-3956,1079,445,-451,11,-27,31,9
20550,63,-572,-4039,1162,324,-487,-81,-26,32,6
20560,64,-325,-4132,1193,209,-499,-140,-26,32,6
20570,65,-19,-4128,1211,128,-416,-197,-29,25,13
20580,66,219,-4285,1189,40,-257,-253,-29,25,13
20590,67,268,-4690,1036,-2,-90,-286,-21,27,5
20600,68,138,-4928,853,72,116,-334,-21,27,5
20610,69,-89,-4828,912,146,390,-406,-30,28,8
20620,70,-213,-4666,1051,127,576,-439,-30,28,8
20630,71,-208,-4717,1166,13,718,-430,-29,29,7
20640,72,-129,-4843,1029,-143,959,-437,-29,29,7
20650,73,-64,-5010,873,-244,1228,-474,-27,29,7
20660,74,-117,-5107,776,-275,1450,-534,-27,29,7
20670,75,-232,-5042,804,-297,1622,-599,-29,27,7
20680,76,-398,-4809,925,-342,1705,-669,-29,27,7
20690,77,-451,-4332,1133,-458,1707,-753,-25,25,3
20700,78,-377,-3846,1276,-627,1615,-853,-25,25,3
20710,79,-256,-3490,1275,-764,1386,-941,-29,29,7
20720,80,-148,-3320,1210,-815,1045,-997,-29,29,7
20730,81,-38,-3192,1087,-812,723,-1053,-26,28,12
20740,82,1,-3202,914,-766,498,-1097,-26,28,12
20750,83,153,-3253,696,-688,377,-1107,-28,30,10
20760,84,208,-3370,529,-591,348,-1074,-28,30,10
20770,85,400,-3468,433,-490,387,-1021,-34,30,10
20780,86,532,-3569,453,-404,502,-963,-34,30,10
20790,87,639,-3722,556,-348,674,-925,-31,27,11
20800,88,677,-3857,575,-308,878,-905,-31,27,11
20810,89,632,-4000,634,-303,1100,-896,-29,33,9
20820,90,481,-4114,592,-313,1307,-896,-29,33,9
20830,91,287,-4198,559,-342,1475,-893,-37,27,9
20840,92,133,-4210,549,-374,1577,-897,-37,27,9
20850,93,8,-4206,549,-422,1647,-903,-33,31,15
20860,94,-89,-4253,546,-472,1690,-905,-33,31,15
20870,95,-161,-4320,562,-496,1717,-910,-33,31,11
20880,96,-226,-4336,598,-495,1754,-910,-33,31,11
20890,97,-293,-4277,681,-493,1796,-910,-30,34,16
20900,98,-360,-4222,719,-500,1826,-921,-30,34,16
20910,99,-422,-4093,795,-520,1864,-937,-35,31,11
20920,100,-523,-4078,825,-542,1852,-957,-35,31,11
20930,101,-642,-3990,782,-537,1810,-981,-31,31,11
20940,102,-772,-3924,683,-498,1737,-1025,-31,31,11
20950,103,-873,-3831,673,-447,1606,-1081,-30,30,12
20960,104,-976,-3744,635,-402,1452,-1135,-30,30,12
20970,105,-1024,-3665,611,-363,1284,-1181,-30,36,12
20980,106,-1034,-3661,654,-321,1104,-1208,-30,36,12
20990,107,-1033,-3665,685,-292,885,-1222,-36,30,12
21000,108,-1001,-3688,700,-276,680,-1232,-36,30,12
21010,109,-840,-3692,768,-272,508,-1228,-36,32,14
21020,110,-856,-3757,671,-279,229,-1221,-36,32,14
21030,111,-812,-3762,649,-268,60,-1199,-37,35,15
21040,112,-710,-3815,633,-270,-112,-1152,-37,35,15
21050,113,-470,-3844,679,-281,-186,-1097,-37,31,17
21060,114,-105,-3887,754,-287,-235,-1030,-37,31,17
21070,115,56,-3899,773,-305,-113,-965,-35,31,15
21080,116,202,-3955,756,-312,24,-884,-35,31,15
21090,117,155,-3937,726,-291,148,-788,-50,30,12
21100,118,79,-3963,652,-265,267,-688,-50,30,12
21110,119,-7,-3949,535,-235,356,-590,-53,35,19
21120,120,-50,-4011,446,-209,362,-499,-53,35,19
21130,121,-72,-4071,422,-197,299,-411,-46,32,18
21140,122,-85,-4185,394,-200,205,-328,-46,32,18
21150,123,-46,-4347,450,-214,123,-244,-56,32,18
21160,124,4,-4591,397,-234,38,-139,-56,32,18
21170,125,-15,-4839,276,-243,-14,-11,-62,26,16
21180,126,41,-4992,258,-214,-86,103,-62,26,16
21190,127,140,-4989,269,-178,-154,192,-51,31,17
21200,128,218,-4963,379,-157,-172,246,-51,31,17
21210,129,263,-5059,375,-173,-169,306,-58,36,22
21220,130,218,-5243,268,-172,-177,387,-58,36,22
21230,131,106,-5324,174,-154,-251,464,-49,33,15
21240,132,21,-5291,147,-132,-424,536,-49,33,15
21250,133,-25,-5115,155,-101,-657,575,-51,39,15
21260,134,25,-4899,185,-68,-892,604,-51,39,15
21270,135,89,-4639,232,-25,-1083,612,-55,33,15
21280,136,156,-4415,274,32,-1204,637,-55,33,15
21290,137,203,-4230,275,103,-1261,656,-54,40,22
21300,138,171,-4174,227,184,-1287,700,-54,40,22
21310,139,116,-4195,139,288,-1346,763,-53,37,19
21320,140,-6,-4261,41,407,-1474,832,-53,37,19
21330,141,-32,-4349,-40,527,-1640,900,-54,40,20
21340,142,-116,-4387,-41,619,-1825,961,-54,40,20
21350,143,-115,-4455,-64,692,-2002,1026,-54,36,20
21360,144,-56,-4507,-47,747,-2135,1101,-54,36,20
21370,145,-106,-4564,-111,793,-2291,1178,-58,42,22
21380,146,-73,-4605,-65,853,-2374,1239,-58,42,22
21390,147,97,-4630,73,893,-2347,1309,-55,43,25
21400,148,265,-4624,132,922,-2270,1366,-55,43,25
21410,149,421,-4558,238,957,-2128,1401,-51,41,25
21420,150,407,-4445,241,984,-1974,1422,-51,41,25
21430,151,331,-4293,305,1016,-1821,1413,-54,40,26
21440,152,369,-4180,407,1022,-1595,1405,-54,40,26
21450,153,284,-4040,327,1018,-1374,1388,-50,44,22
21460,154,147,-3877,299,1019,-1169,1364,-50,44,22
21470,155,106,-3747,314,1018,-1028,1318,-51,45,23
21480,156,-26,-3685,289,987,-884,1275,-51,45,23
21490,157,-333,-3618,167,955,-852,1226,-56,46,26
21500,158,-522,-3639,215,926,-911,1169,-56,46,26
21510,159,-642,-3617,132,914,-931,1106,-45,45,19
21520,160,-698,-3547,98,894,-992,1041,-45,45,19
21530,161,-693,-3563,84,854,-1034,1003,-46,48,18
21540,162,-528,-3560,104,839,-1058,970,-46,48,18
21550,163,-422,-3548,158,827,-1060,926,-47,47,21
21560,164,-348,-3536,200,808,-1052,892,-47,47,21
21570,165,-346,-3543,222,778,-1056,862,-47,49,17
21580,166,-269,-3544,273,766,-997,818,-47,49,17
21590,167,-196,-3542,337,725,-878,784,-39,55,17
21600,168,-118,-3556,437,669,-712,768,-39,55,17
21610,169,-93,-3561,456,620,-544,748,-39,53,9
21620,170,-84,-3526,529,592,-357,717,-39,53,9
21630,171,-91,-3535,583,536,-149,675,-46,46,8
21640,172,-180,-3578,574,485,51,621,-46,46,8
21650,173,-285,-3685,598,437,205,563,-37,51,7
21660,174,-332,-3700,525,427,332,472,-37,51,7
21670,175,-534,-3826,589,334,295,411,-34,50,14
21680,176,-714,-3913,433,313,313,337,-34,50,14
21690,177,-756,-3847,608,320,285,206,-33,49,13
21700,178,-799,-3928,679,241,212,100,-33,49,13
21710,179,-660,-3977,735,218,118,-6,-33,51,9
21720,180,-389,-3954,887,206,67,-116,-33,51,9
21730,181,-186,-4003,1158,129,82,-235,-33,53,1
21740,182,25,-4295,1184,19,168,-318,-33,53,1
21750,183,51,-4545,1109,-8,335,-398,-32,50,6
21760,184,-20,-4534,1215,-36,567,-520,-32,50,6
21770,185,-90,-4617,1345,-154,770,-634,-32,54,6
21780,186,-169,-4834,1355,-269,961,-747,-32,54,6
21790,187,-294,-5125,1212,-369,1170,-831,-30,54,4
21800,188,-493,-5256,1123,-410,1297,-898,-30,54,4
21810,189,-746,-5104,1275,-462,1298,-984,-33,57,7
21820,190,-909,-4828,1369,-616,1216,-1107,-33,57,7
21830,191,-802,-4401,1408,-783,1044,-1256,-32,52,6
21840,192,-541,-4008,1488,-931,787,-1371,-32,52,6
21850,193,-252,-3667,1653,-1053,470,-1443,-26,52,8
21860,194,-25,-3587,1672,-1124,133,-1481,-26,52,8
21870,195,73,-3617,1454,-1072,-191,-1487,-36,54,4
21880,196,182,-3786,1165,-910,-405,-1495,-36,54,4
21890,197,179,-3842,934,-712,-491,-1464,-42,60,6
21900,198,269,-3812,798,-570,-445,-1389,-42,60,6
21910,199,380,-3758,793,-501,-341,-1302,-40,60,8
21920,200,554,-3717,823,-490,-199,-1235,-40,60,8
21930,201,625,-3735,871,-499,-29,-1209,-48,54,18
21940,202,662,-3757,842,-529,119,-1207,-48,54,18
21950,203,634,-3812,806,-551,235,-1226,-52,54,12
21960,204,560,-3867,747,-568,325,-1234,-52,54,12
21970,205,437,-3945,657,-584,399,-1224,-50,54,14
21980,206,287,-3974,629,-593,443,-1195,-50,54,14
21990,207,150,-3948,561,-608,463,-1158,-53,53,21
22000,208,79,-4012,575,-627,486,-1122,-53,53,21
22010,209,84,-4062,576,-648,523,-1073,-53,59,15
22020,210,9,-4103,595,-675,591,-1024,-53,59,15
22030,211,-38,-4107,577,-717,659,-993,-57,57,17
22040,212,-186,-4028,444,-743,715,-976,-57,57,17
22050,213,-217,-3888,551,-769,747,-988,-64,56,18
22060,214,-278,-3827,536,-831,766,-1014,-64,56,18
22070,215,-227,-3842,537,-865,741,-1032,-54,54,22
22080,216,-24,-3872,722,-827,777,-1030,-54,54,22
22090,217,-102,-3830,832,-762,878,-1015,-59,53,23
22100,218,-100,-3796,979,-717,1004,-995,-59,53,23
22110,219,-214,-3843,987,-665,1074,-966,-65,51,21
22120,220,-425,-3820,941,-603,1097,-921,-65,51,21
22130,221,-665,-3823,922,-546,1012,-876,-63,57,23
22140,222,-852,-3762,817,-477,829,-851,-63,57,23
22150,223,-926,-3707,763,-404,547,-838,-64,56,22
22160,224,-899,-3668,764,-358,241,-830,-64,56,22
22170,225,-693,-3670,841,-318,-15,-810,-68,54,20
22180,226,-512,-3693,868,-296,-208,-776,-68,54,20
22190,227,-233,-3744,940,-278,-332,-730,-69,51,27
22200,228,-128,-3799,841,-257,-420,-675,-69,51,27
22210,229,-53,-3894,776,-222,-473,-614,-70,56,28
22220,230,-94,-3942,611,-172,-489,-558,-70,56,28
22230,231,-51,-4049,571,-122,-517,-498,-69,51,23
22240,232,3,-4169,509,-78,-556,-432,-69,51,23
22250,233,45,-4241,455,-30,-568,-362,-73,53,29
22260,234,110,-4310,415,-18,-591,-289,-73,53,29
22270,235,197,-4439,414,-20,-594,-196,-76,52,26
22280,236,246,-4615,290,-24,-619,-70,-76,52,26
22290,237,349,-4894,194,-13,-664,101,-77,53,29
22300,238,398,-5149,25,3,-727,284,-77,53,29
22310,239,390,-5278,-83,61,-832,450,-74,56,28
22320,240,438,-5359,-81,108,-953,599,-74,56,28
22330,241,498,-5613,-53,108,-1071,755,-68,56,26
22340,242,663,-5953,-92,104,-1198,911,-68,56,26
22350,243,749,-6067,-90,141,-1350,1039,-75,61,29
22360,244,902,-5963,-52,182,-1489,1138,-75,61,29
22370,245,1016,-5656,155,234,-1576,1190,-71,59,29
22380,246,1106,-5247,269,302,-1586,1206,-71,59,29
22390,247,1112,-4756,353,377,-1524,1189,-70,60,34
22400,248,1121,-4335,433,442,-1411,1168,-70,60,34
22410,249,948,-4006,356,509,-1290,1145,-61,63,37
22420,250,778,-3881,230,598,-1211,1128,-61,63,37
22430,251,537,-3842,13,707,-1193,1143,-56,62,34
22440,252,303,-3921,-143,857,-1229,1174,-56,62,34
22450,253,85,-4072,-263,988,-1331,1217,-58,56,32
22460,254,-161,-4284,-418,1101,-1475,1280,-58,56,32
22470,255,-355,-4419,-456,1212,-1656,1348,-51,61,29
22480,0,-483,-4514,-353,1313,-1827,1401,-51,61,29
22490,1,-437,-4571,-217,1341,-1941,1457,-56,58,28
22500,2,-346,-4625,-83,1326,-2008,1503,-56,58,28
22510,3,-152,-4628,71,1276,-1971,1561,-50,62,30
22520,4,151,-4613,234,1248,-1830,1593,-50,62,30
22530,5,421,-4482,421,1216,-1564,1611,-44,64,22
22540,6,467,-4305,395,1172,-1321,1619,-44,64,22
22550,7,427,-4150,343,1113,-1129,1622,-43,63,23
22560,8,243,-4022,282,1058,-989,1631,-43,63,23
22570,9,-109,-3919,211,991,-879,1648,-41,63,21
22580,10,-401,-3866,146,934,-853,1649,-41,63,21
22590,11,-715,-3832,83,877,-944,1616,-32,60,20
22600,12,-821,-3800,88,820,-1075,1545,-32,60,20
22610,13,-757,-3794,133,768,-1188,1455,-24,62,12
22620,14,-661,-3813,92,728,-1270,1373,-24,62,12
22630,15,-534,-3829,70,745,-1338,1309,-26,62,16
22640,16,-334,-3786,70,793,-1333,1252,-26,62,16
22650,17,-165,-3785,123,839,-1266,1214,-23,57,11
22660,18,-47,-3725,135,882,-1117,1182,-23,57,11
22670,19,-29,-3646,226,905,-971,1134,-15,55,11
22680,20,-68,-3622,319,879,-817,1102,-15,55,11
22690,21,-123,-3553,347,840,-672,1048,-23,53,15
22700,22,-203,-3544,430,761,-550,995,-23,53,15
22710,23,-344,-3527,476,666,-438,945,-17,51,9
22720,24,-382,-3484,488,579,-354,875,-17,51,9
22730,25,-507,-3459,623,472,-264,801,-16,54,2
22740,26,-526,-3452,566,372,-206,712,-16,54,2
22750,27,-657,-3456,606,279,-232,617,-14,48,4
22760,28,-648,-3474,630,221,-251,519,-14,48,4
22770,29,-544,-3557,698,149,-280,446,-14,48,8
22780,30,-569,-3462,639,96,-304,348,-14,48,8
22790,31,-621,-3411,698,20,-299,213,-12,42,0
22800,32,-646,-3476,681,-61,-283,93,-12,42,0
22810,33,-655,-3545,723,-81,-288,5,-16,42,4
22820,34,-654,-3671,758,-51,-357,-46,-16,42,4
22830,35,-632,-3839,774,-23,-466,-82,-11,51,5
22840,36,-500,-3902,797,24,-545,-150,-11,51,5
22850,37,-403,-3873,874,49,-494,-270,-13,47,3
22860,38,-346,-3834,1142,6,-370,-429,-13,47,3
22870,39,-345,-4004,1339,-96,-219,-556,-19,41,-1
22880,40,-414,-4270,1276,-150,-119,-604,-19,41,-1
22890,41,-552,-4386,1228,-137,-47,-605,-20,40,6
22900,42,-677,-4248,1288,-200,46,-647,-20,40,6
22910,43,-630,-4077,1453,-389,111,-742,-17,45,1
22920,44,-536,-4158,1451,-607,151,-863,-17,45,1
22930,45,-455,-4435,1446,-737,179,-962,-21,39,-1
22940,46,-576,-4759,1407,-800,236,-969,-21,39,-1
22950,47,-657,-4902,1350,-873,336,-926,-22,46,8
22960,48,-763,-4944,1304,-934,418,-914,-22,46,8
22970,49,-678,-4749,1348,-1010,482,-942,-18,36,0
22980,50,-501,-4393,1513,-1105,481,-1022,-18,36,0
22990,51,-167,-4001,1666,-1246,432,-1091,-23,45,7
23000,52,218,-3676,1682,-1324,359,-1108,-23,45,7
23010,53,402,-3473,1603,-1357,322,-1117,-27,47,13
23020,54,386,-3377,1440,-1342,276,-1163,-27,47,13
23030,55,323,-3366,1300,-1277,203,-1226,-29,49,13
23040,56,283,-3415,1066,-1238,154,-1273,-29,49,13
23050,57,407,-3569,857,-1202,75,-1273,-30,52,20
23060,58,550,-3689,699,-1076,-6,-1246,-30,52,20
23070,59,636,-3760,773,-945,-16,-1208,-28,46,20
23080,60,830,-3776,826,-865,79,-1193,-28,46,20
23090,61,969,-3887,850,-842,254,-1182,-37,47,23
23100,62,960,-4006,759,-842,424,-1162,-37,47,23
23110,63,890,-4190,656,-854,598,-1148,-38,44,26
23120,64,810,-4346,539,-858,757,-1128,-38,44,26
23130,65,674,-4520,445,-843,895,-1100,-38,50,24
23140,66,556,-4619,443,-816,1037,-1074,-38,50,24
23150,67,463,-4677,565,-793,1158,-1041,-43,51,23
23160,68,310,-4736,555,-780,1255,-1017,-43,51,23
23170,69,224,-4706,611,-753,1315,-1005,-40,48,24
23180,70,109,-4560,686,-742,1365,-999,-40,48,24
23190,71,-47,-4428,714,-742,1403,-1008,-48,44,30
23200,72,-184,-4302,636,-746,1389,-1021,-48,44,30
23210,73,-336,-4215,573,-736,1280,-1023,-43,43,31
23220,74,-351,-4113,617,-680,1172,-1031,-43,43,31
23230,75,-484,-4027,671,-623,1042,-1036,-46,40,32
23240,76,-892,-3881,383,-550,828,-1034,-46,40,32
23250,77,-729,-3799,658,-460,606,-1039,-46,48,30
23260,78,-696,-3674,632,-404,375,-1049,-46,48,30
23270,79,-340,-3660,783,-409,257,-1071,-53,43,29
23280,80,-375,-3701,651,-405,178,-1071,-53,43,29
23290,81,-435,-3758,625,-381,141,-1027,-50,42,30
23300,82,-470,-3755,650,-324,199,-946,-50,42,30
23310,83,-470,-3716,611,-248,207,-869,-58,44,34
23320,84,-569,-3681,515,-191,159,-804,-58,44,34
23330,85,-648,-3643,420,-172,65,-763,-54,38,30
23340,86,-634,-3682,392,-145,-106,-721,-54,38,30
23350,87,-692,-3685,438,-149,-288,-674,-51,37,33
23360,88,-638,-3698,431,-167,-439,-620,-51,37,33
23370,89,-507,-3690,463,-197,-566,-551,-61,37,35
23380,90,-336,-3694,440,-234,-647,-483,-61,37,35
23390,91,-220,-3721,358,-237,-710,-416,-59,35,33
23400,92,-120,-3719,388,-234,-737,-347,-59,35,33
23410,93,-59,-3810,333,-227,-758,-266,-58,34,30
23420,94,13,-3909,291,-226,-808,-175,-58,34,30
23430,95,26,-4035,250,-219,-864,-74,-64,36,34
23440,96,102,-4240,164,-239,-902,-2,-64,36,34
23450,97,123,-4453,7,-227,-961,99,-65,37,35
23460,98,164,-4694,-97,-164,-1055,221,-65,37,35
23470,99,249,-4893,-182,-131,-1168,357,-68,28,38
23480,100,362,-5149,-213,-118,-1266,501,-68,28,38
23490,101,516,-5420,-99,-96,-1321,614,-66,32,40
23500,102,759,-5488,9,-44,-1263,699,-66,32,40
23510,103,921,-5437,163,19,-1128,777,-64,34,38
23520,104,1012,-5311,321,72,-942,849,-64,34,38
23530,105,924,-5297,357,92,-788,915,-60,36,42
23540,106,720,-5314,232,118,-706,968,-60,36,42
23550,107,425,-5278,226,189,-731,1005,-61,35,43
23560,108,163,-5138,245,223,-846,1017,-61,35,43
23570,109,-63,-4981,109,275,-1011,1006,-55,35,43
23580,110,-178,-4683,113,342,-1180,989,-55,35,43
23590,111,-263,-4325,55,377,-1354,971,-58,38,48
23600,112,-239,-4098,-27,413,-1523,952,-58,38,48
23610,113,-241,-3939,-190,479,-1653,950,-59,37,45
23620,114,-183,-3860,-286,573,-1775,956,-59,37,45
23630,115,-211,-3950,-382,669,-1889,988,-55,33,49
23640,116,-209,-4115,-540,789,-2035,1058,-55,33,49
23650,117,-224,-4362,-701,896,-2199,1137,-57,33,43
23660,118,-310,-4623,-861,997,-2392,1215,-57,33,43
23670,119,-248,-4878,-882,1086,-2547,1282,-58,36,48
23680,120,-83,-5115,-900,1181,-2680,1340,-58,36,48
23690,121,125,-5256,-796,1253,-2744,1404,-55,35,47
23700,122,456,-5353,-595,1290,-2710,1459,-55,35,47
23710,123,784,-5356,-366,1333,-2564,1504,-57,35,49
23720,124,1030,-5212,-95,1364,-2208,1533,-57,35,49
23730,125,1364,-4982,174,1366,-1774,1573,-53,35,45
23740,126,1504,-4663,402,1359,-1324,1581,-53,35,45
23750,127,1448,-4380,570,1307,-799,1586,-51,37,49
23760,128,1207,-4114,526,1248,-350,1594,-51,37,49
23770,129,908,-3857,566,1191,34,1582,-51,35,43
23780,130,552,-3705,469,1120,305,1531,-51,35,43
23790,131,158,-3547,437,1069,450,1503,-43,35,45
23800,132,-300,-3454,402,1011,503,1431,-43,35,45
23810,133,-610,-3414,419,931,433,1333,-38,32,46
23820,134,-908,-3379,405,871,297,1200,-38,32,46
23830,135,-991,-3358,402,820,104,1048,-37,37,37
23840,136,-1098,-3362,390,776,-101,912,-37,37,37
23850,137,-1046,-3331,378,752,-331,791,-36,32,38
23860,138,-965,-3296,409,747,-523,687,-36,32,38
23870,139,-851,-3289,427,706,-677,606,-32,38,36
23880,140,-867,-3280,416,666,-785,546,-32,38,36
23890,141,-845,-3280,467,625,-871,496,-34,36,38
23900,142,-835,-3294,529,569,-929,459,-34,36,38
23910,143,-782,-3155,561,555,-894,350,-35,31,39
23920,144,-786,-3242,716,359,-872,333,-35,31,39
23930,145,-718,-3311,624,295,-757,284,-33,31,41
23940,146,-605,-3342,652,243,-674,240,-33,31,41
23950,147,-546,-3390,635,192,-577,212,-37,33,41
23960,148,-522,-3363,730,171,-417,167,-37,33,41
23970,149,-489,-3390,695,127,-263,126,-28,38,40
23980,150,-478,-3370,682,75,-141,90,-28,38,40
23990,151,-491,-3387,680,24,-39,61,-41,31,43
24000,152,-461,-3498,626,-17,30,46,-41,31,43
24010,153,-508,-3519,470,0,53,15,-33,37,41
24020,154,-618,-3573,516,20,121,-53,-33,37,41
24030,155,-858,-3730,484,18,209,-152,-34,36,38
24040,156,-1165,-3795,451,33,225,-299,-34,36,38
24050,157,-1262,-3815,641,36,144,-471,-36,30,44
24060,158,-1134,-3986,730,-30,-29,-572,-36,30,44
24070,159,-786,-4216,887,-63,-205,-606,-36,34,42
24080,160,-593,-4390,970,-101,-233,-624,-36,34,42
24090,161,-401,-4402,1250,-212,-56,-697,-38,28,40
24100,162,-296,-4490,1397,-388,257,-805,-38,28,40
24110,163,-157,-4725,1410,-576,542,-884,-44,34,42
24120,164,-70,-5037,1374,-695,847,-931,-44,34,42
24130,165,-227,-5332,1236,-763,1173,-944,-39,35,41
24140,166,-563,-5544,1161,-820,1350,-952,-39,35,41
24150,167,-923,-5422,1210,-902,1390,-980,-42,34,42
24160,168,-1116,-5280,1286,-1037,1291,-1029,-42,34,42
24170,169,-1108,-4991,1221,-1140,1074,-1087,-36,28,44
24180,170,-870,-4609,1374,-1241,817,-1173,-36,28,44
24190,171,-592,-4296,1404,-1359,518,-1252,-42,32,48
24200,172,-305,-4013,1348,-1362,205,-1304,-42,32,48
24210,173,-167,-3683,1292,-1298,-26,-1353,-46,30,48
24220,174,33,-3468,1068,-1246,-134,-1395,-46,30,48
24230,175,218,-3381,916,-1166,-182,-1416,-50,28,52
24240,176,402,-3349,774,-1073,-218,-1397,-50,28,52
24250,177,523,-3294,589,-956,-282,-1377,-52,28,56
24260,178,851,-3249,556,-852,-329,-1370,-52,28,56
24270,179,1096,-3218,501,-791,-276,-1369,-59,25,57
24280,180,1334,-3285,412,-762,-131,-1361,-59,25,57
24290,181,1440,-3416,363,-771,70,-1328,-61,27,59
24300,182,1459,-3662,412,-756,296,-1269,-61,27,59
24310,183,1481,-4037,443,-687,610,-1180,-57,25,63
24320,184,1322,-4346,499,-563,974,-1074,-57,25,63
24330,185,1072,-4579,565,-415,1318,-956,-64,22,60
24340,186,697,-4717,466,-277,1608,-851,-64,22,60
24350,187,362,-4766,424,-182,1786,-755,-64,20,54
24360,188,15,-4722,379,-129,1847,-675,-64,20,54
24370,189,-283,-4604,420,-112,1797,-637,-72,18,58
24380,190,-473,-4454,469,-143,1701,-622,-72,18,58
24390,191,-702,-4347,449,-187,1547,-623,-68,20,60
24400,192,-815,-4269,521,-216,1380,-637,-68,20,60
24410,193,-925,-4158,536,-228,1169,-652,-65,15,55
24420,194,-1264,-4026,424,-223,914,-679,-65,15,55
24430,195,-868,-3935,758,-203,658,-722,-73,15,47
24440,196,-840,-3823,703,-195,448,-787,-73,15,47
24450,197,-692,-3773,769,-225,226,-822,-71,21,49
24460,198,-729,-3775,697,-245,143,-809,-71,21,49
24470,199,-769,-3774,661,-222,133,-770,-68,18,52
24480,200,-730,-3743,650,-174,167,-708,-68,18,52
24490,201,-672,-3739,542,-111,197,-638,-75,11,53
24500,202,-696,-3704,457,-29,91,-574,-75,11,53
24510,203,-764,-3652,406,39,-52,-520,-70,16,56
24520,204,-795,-3584,464,65,-166,-474,-70,16,56
24530,205,-741,-3538,533,56,-276,-430,-81,13,49
24540,206,-684,-3476,507,29,-363,-389,-81,13,49
24550,207,-587,-3473,565,-5,-432,-351,-78,8,48
24560,208,-525,-3497,499,-26,-516,-309,-78,8,48
24570,209,-506,-3508,495,-40,-609,-276,-78,14,50
24580,210,-482,-3534,472,-44,-706,-239,-78,14,50
24590,211,-472,-3540,458,-51,-796,-196,-80,8,54
24600,212,-381,-3654,455,-64,-889,-149,-80,8,54
24610,213,-279,-3770,450,-69,-957,-81,-79,13,59
24620,214,-169,-3909,412,-75,-1012,-5,-79,13,59
24630,215,-112,-4107,306,-80,-1046,85,-82,8,60
24640,216,-94,-4340,227,-71,-1092,192,-82,8,60
24650,217,-53,-4601,150,-56,-1156,312,-83,11,63
24660,218,-58,-4984,90,-48,-1236,447,-83,11,63
24670,219,-38,-5308,22,-36,-1335,581,-78,10,58
24680,220,40,-5473,-3,-5,-1441,695,-78,10,58
24690,221,109,-5616,57,10,-1531,795,-82,12,68
24700,222,211,-5832,10,10,-1620,877,-82,12,68
24710,223,341,-6009,-25,26,-1692,944,-85,15,65
24720,224,459,-6093,-31,54,-1716,1004,-85,15,65
24730,225,518,-5980,-14,102,-1707,1040,-77,13,69
24740,226,604,-5798,54,171,-1723,1059,-77,13,69
24750,227,582,-5393,181,255,-1692,1064,-82,12,70
24760,228,560,-4921,322,327,-1647,1039,-82,12,70
24770,229,469,-4469,332,381,-1602,1000,-77,21,75
24780,230,376,-4121,286,432,-1565,959,-77,21,75
24790,231,261,-3973,236,498,-1513,939,-80,16,80
24800,232,100,-3888,51,578,-1481,931,-80,16,80
24810,233,-96,-3955,-68,682,-1538,938,-73,21,81
24820,234,-319,-4026,-225,785,-1686,958,-73,21,81
24830,235,-495,-4155,-334,870,-1887,1001,-74,24,84
24840,236,-659,-4352,-486,945,-2130,1048,-74,24,84
24850,237,-629,-4506,-527,1025,-2355,1082,-72,20,88
24860,238,-575,-4570,-496,1091,-2572,1127,-72,20,88
24870,239,-355,-4614,-454,1136,-2693,1167,-69,21,85
24880,240,-109,-4650,-310,1143,-2718,1221,-69,21,85
24890,241,98,-4763,-283,1129,-2664,1306,-66,32,86
24900,242,374,-4748,-138,1161,-2500,1387,-66,32,86
24910,243,550,-4691,-35,1190,-2211,1468,-61,31,87
24920,244,721,-4497,30,1207,-1897,1530,-61,31,87
24930,245,759,-4321,161,1181,-1561,1573,-53,33,85
24940,246,640,-4171,187,1143,-1223,1604,-53,33,85
24950,247,486,-4033,208,1089,-898,1634,-57,39,87
24960,248,219,-3887,201,1041,-592,1643,-57,39,87
24970,249,-3,-3774,256,997,-396,1615,-51,37,85
24980,250,-250,-3647,323,914,-271,1566,-51,37,85
24990,251,-388,-3572,376,818,-226,1504,-49,41,83
25000,252,-569,-3569,356,735,-243,1427,-49,41,83
25010,253,-662,-3524,435,676,-291,1341,-49,45,83
25020,254,-712,-3512,440,622,-365,1256,-49,45,83
25030,255,-782,-3476,466,581,-461,1166,-36,44,82
25040,0,-760,-3437,478,529,-552,1083,-36,44,82
25050,1,-782,-3450,505,480,-623,1010,-37,43,81
25060,2,-775,-3444,480,462,-694,919,-37,43,81
25070,3,-824,-3477,529,421,-756,838,-40,46,80
25080,4,-838,-3388,518,405,-788,707,-40,46,80
25090,5,-839,-3472,627,299,-823,651,-40,44,78
25100,6,-813,-3486,582,231,-814,605,-40,44,78
25110,7,-726,-3524,560,199,-838,548,-33,45,81
25120,8,-653,-3538,542,163,-870,497,-33,45,81
25130,9,-655,-3512,553,149,-836,417,-31,49,79
25140,10,-683,-3497,603,118,-732,318,-31,49,79
25150,11,-654,-3545,648,55,-637,222,-24,54,82
25160,12,-752,-3607,667,10,-598,150,-24,54,82
25170,13,-737,-3754,649,-34,-627,114,-26,48,80
25180,14,-778,-3720,527,-7,-719,77,-26,48,80
25190,15,-747,-3648,697,34,-761,8,-28,52,80
25200,16,-683,-3562,802,30,-714,-77,-28,52,80
25210,17,-701,-3661,908,15,-648,-140,-28,54,84
25220,18,-698,-3757,969,25,-618,-158,-28,54,84
25230,19,-557,-3851,1011,20,-612,-146,-25,47,87
25240,20,-393,-3931,1136,-25,-531,-162,-25,47,87
25250,21,-314,-4120,1312,-111,-318,-218,-31,47,87
25260,22,-323,-4299,1367,-219,-39,-307,-31,47,87
25270,23,-371,-4380,1390,-308,250,-411,-28,50,80
25280,24,-398,-4316,1472,-396,551,-515,-28,50,80
25290,25,-386,-4166,1534,-533,812,-605,-29,47,89
25300,26,-351,-4141,1528,-678,989,-672,-29,47,89
25310,27,-392,-4284,1505,-766,1098,-737,-30,50,86
25320,28,-504,-4542,1419,-786,1143,-793,-30,50,86
25330,29,-812,-4777,1352,-786,1096,-838,-40,50,84
25340,30,-1148,-4939,1239,-820,939,-880,-40,50,84
25350,31,-1292,-4908,1175,-881,728,-945,-39,49,85
25360,32,-1172,-4630,1221,-986,446,-1040,-39,49,85
25370,33,-739,-4213,1410,-1085,184,-1148,-36,42,92
25380,34,-133,-3798,1521,-1179,1,-1230,-36,42,92
25390,35,316,-3521,1513,-1237,-52,-1273,-43,47,93
25400,36,582,-3389,1378,-1218,-77,-1309,-43,47,93
25410,37,585,-3339,1233,-1148,-37,-1364,-45,43,93
25420,38,527,-3415,923,-1055,1,-1400,-45,43,93
25430,39,436,-3542,738,-924,23,-1396,-46,42,96
25440,40,427,-3651,635,-820,74,-1359,-46,42,96
25450,41,455,-3817,561,-734,116,-1325,-48,34,106
25460,42,543,-3892,510,-651,177,-1297,-48,34,106
25470,43,634,-4019,541,-613,305,-1277,-56,38,96
25480,44,648,-4138,524,-616,442,-1270,-56,38,96
25490,45,585,-4311,500,-640,571,-1263,-58,36,102
25500,46,491,-4474,452,-666,699,-1251,-58,36,102
25510,47,363,-4555,400,-703,795,-1232,-59,33,99
25520,48,260,-4571,382,-732,835,-1203,-59,33,99
25530,49,186,-4512,424,-767,881,-1167,-61,35,101
25540,50,186,-4486,501,-816,951,-1129,-61,35,101
25550,51,182,-4532,492,-823,1022,-1096,-69,37,101
25560,52,192,-4518,559,-804,1126,-1049,-69,37,101
25570,53,114,-4530,576,-756,1242,-998,-74,34,102
25580,54,-6,-4501,520,-673,1334,-954,-74,34,102
25590,55,-156,-4393,535,-564,1379,-912,-72,26,106
25600,56,-325,-4236,491,-488,1349,-889,-72,26,106
25610,57,-760,-4086,297,-430,1173,-887,-77,23,109
25620,58,-794,-3930,459,-384,925,-905,-77,23,109
25630,59,-551,-3867,608,-349,721,-930,-74,22,100
25640,60,-573,-3803,586,-343,523,-967,-74,22,100
25650,61,-433,-3830,670,-342,449,-978,-79,29,103
25660,62,-580,-3800,574,-312,376,-956,-79,29,103
25670,63,-523,-3852,615,-259,374,-907,-88,18,102
25680,64,-552,-3803,523,-170,394,-828,-88,18,102
25690,65,-611,-3758,530,-84,327,-753,-83,23,101
25700,66,-599,-3683,473,-27,209,-701,-83,23,101
25710,67,-660,-3621,437,2,73,-662,-89,15,99
25720,68,-618,-3625,463,7,-57,-628,-89,15,99
25730,69,-630,-3588,466,7,-164,-583,-90,18,106
25740,70,-575,-3629,521,14,-245,-530,-90,18,106
25750,71,-524,-3641,495,17,-334,-471,-92,22,100
25760,72,-441,-3695,437,36,-433,-414,-92,22,100
25770,73,-397,-3685,469,59,-515,-349,-94,12,104
25780,74,-303,-3695,467,74,-570,-287,-94,12,104
25790,75,-219,-3718,486,76,-604,-225,-90,12,102
25800,76,-136,-3772,471,104,-644,-154,-90,12,102
25810,77,-75,-3868,455,124,-670,-80,-88,16,102
25820,78,-40,-3975,409,121,-701,-1,-88,16,102
25830,79,-30,-4150,354,117,-770,85,-95,17,107
25840,80,-16,-4325,276,123,-851,188,-95,17,107
25850,81,38,-4549,194,129,-941,304,-91,21,109
25860,82,134,-4757,180,141,-1008,424,-91,21,109
25870,83,161,-4996,183,151,-1059,551,-92,16,104
25880,84,263,-5215,109,152,-1102,687,-92,16,104
25890,85,329,-5254,138,165,-1128,791,-78,20,108
25900,86,377,-5198,193,181,-1154,856,-78,20,108
25910,87,495,-5180,304,170,-1151,908,-82,16,110
25920,88,640,-5333,330,147,-1095,959,-82,16,110
25930,89,661,-5549,320,145,-997,1025,-83,21,109
25940,90,587,-5685,170,159,-912,1086,-83,21,109
25950,91,415,-5579,126,190,-889,1139,-81,25,107
25960,92,216,-5328,139,202,-916,1173,-81,25,107
25970,93,60,-4967,135,179,-1020,1174,-78,28,120
25980,94,-3,-4603,158,133,-1146,1164,-78,28,120
25990,95,-97,-4270,27,73,-1279,1157,-78,22,120
26000,96,-232,-4038,-112,42,-1427,1154,-78,22,120
26010,97,-300,-3908,-230,60,-1541,1169,-75,29,115
26020,98,-422,-3819,-260,112,-1638,1198,-75,29,115
26030,99,-466,-3831,-233,177,-1740,1257,-74,28,118
26040,100,-499,-3940,-232,252,-1885,1348,-74,28,118
26050,101,-530,-4109,-182,340,-2047,1429,-61,29,119
26060,102,-551,-4220,-189,437,-2225,1463,-61,29,119
26070,103,-545,-4318,-159,496,-2426,1455,-58,40,126
26080,104,-476,-4467,-189,518,-2630,1442,-58,40,126
26090,105,-436,-4662,-135,545,-2780,1433,-52,40,126
26100,106,-402,-4862,-94,594,-2919,1410,-52,40,126
26110,107,-391,-4945,-33,653,-3034,1375,-47,39,129
26120,108,-250,-4999,8,701,-3046,1335,-47,39,129
26130,109,19,-4964,105,719,-2970,1300,-44,40,126
26140,110,291,-4804,157,721,-2818,1257,-44,40,126
26150,111,397,-4585,182,715,-2604,1203,-34,44,124
26160,112,639,-4370,284,670,-2356,1165,-34,44,124
26170,113,632,-4175,215,633,-2040,1140,-31,49,129
26180,114,250,-4030,233,581,-1815,1113,-31,49,129
26190,115,-238,-3927,165,533,-1760,1110,-20,44,128
26200,116,-319,-3830,197,520,-1566,1092,-20,44,128
26210,117,-381,-3706,107,506,-1268,1102,-16,46,128
26220,118,-281,-3512,-12,518,-1181,1083,-16,46,128
26230,119,-278,-3407,-27,538,-1146,1051,-13,51,129
26240,120,-172,-3343,2,564,-1131,1008,-13,51,129
26250,121,-171,-3254,128,579,-1038,961,-8,50,122
26260,122,-97,-3196,238,581,-920,909,-8,50,122
26270,123,-271,-3193,286,548,-778,861,0,58,128
26280,124,-373,-3162,367,528,-671,796,0,58,128
26290,125,-473,-3180,423,480,-579,737,2,58,122
26300,126,-513,-3143,421,433,-495,672,2,58,122
26310,127,-591,-3179,462,375,-473,602,1,53,121
26320,128,-640,-3244,481,325,-473,531,1,53,121
26330,129,-653,-3325,525,282,-469,463,6,58,112
26340,130,-656,-3403,537,227,-473,404,6,58,112
26350,131,-679,-3483,557,171,-456,344,5,57,119
26360,132,-647,-3630,522,115,-436,294,5,57,119
26370,133,-690,-3732,460,80,-426,239,6,60,114
26380,134,-643,-3895,521,64,-434,187,6,60,114
26390,135,-719,-4025,481,48,-437,136,8,56,116
26400,136,-814,-4068,504,64,-424,55,8,56,116
26410,137,-809,-4148,648,37,-378,-43,10,60,116
26420,138,-780,-4221,696,-30,-330,-115,10,60,116
26430,139,-641,-4285,752,-85,-318,-150,9,65,115
26440,140,-399,-4142,988,-120,-268,-182,9,65,115
26450,141,-147,-4043,1174,-190,-135,-218,12,64,116
26460,142,52,-3951,1326,-257,92,-303,12,64,116
26470,143,79,-3948,1360,-308,381,-414,8,64,116
26480,144,-2,-4201,1280,-336,683,-527,8,64,116
26490,145,-233,-4391,1104,-304,963,-630,8,58,120
26500,146,-435,-4359,1089,-280,1185,-742,8,58,120
26510,147,-565,-4252,1162,-351,1293,-835,10,62,116
26520,148,-589,-4333,1110,-476,1325,-915,10,62,116
26530,149,-675,-4497,818,-541,1326,-988,6,62,116
26540,150,-734,-4584,815,-537,1330,-1072,6,62,116
26550,151,-882,-4689,800,-554,1254,-1117,4,60,116
26560,152,-1038,-4782,818,-584,1088,-1141,4,60,116
26570,153,-982,-4791,926,-650,886,-1155,-3,61,123
26580,154,-849,-4632,939,-745,719,-1173,-3,61,123
26590,155,-561,-4401,1040,-858,589,-1194,-5,59,119
26600,156,-322,-4097,986,-937,515,-1223,-5,59,119
26610,157,-79,-3838,1012,-972,488,-1246,-9,63,119
26620,158,48,-3614,953,-968,450,-1249,-9,63,119
26630,159,250,-3490,910,-941,407,-1244,-15,63,123
26640,160,340,-3492,749,-879,353,-1234,-15,63,123
26650,161,379,-3608,582,-809,295,-1218,-10,60,122
26660,162,413,-3777,411,-707,234,-1178,-10,60,122
26670,163,562,-3899,392,-601,178,-1109,-27,57,123
26680,164,661,-3987,433,-525,199,-1045,-27,57,123
26690,165,815,-4096,517,-498,291,-997,-20,54,124
26700,166,944,-4219,503,-474,461,-958,-20,54,124
26710,167,1090,-4240,610,-470,667,-932,-28,54,120
26720,168,1072,-4272,634,-495,854,-919,-28,54,120
26730,169,911,-4311,599,-522,1036,-924,-29,55,125
26740,170,713,-4322,512,-533,1139,-932,-29,55,125
26750,171,603,-4299,567,-520,1211,-934,-37,55,121
26760,172,472,-4277,578,-518,1265,-931,-37,55,121
26770,173,402,-4297,572,-516,1316,-942,-37,51,129
26780,174,311,-4304,528,-496,1362,-951,-37,51,129
26790,175,230,-4311,550,-448,1378,-929,-44,52,122
26800,176,70,-4246,534,-408,1398,-905,-44,52,122
26810,177,-29,-4172,507,-383,1403,-887,-43,51,119
26820,178,-136,-4140,441,-356,1378,-875,-43,51,119
26830,179,-199,-4056,455,-314,1352,-891,-46,50,120
26840,180,-362,-3960,497,-281,1314,-902,-46,50,120
26850,181,-410,-3861,566,-279,1231,-901,-55,53,123
26860,182,-565,-3827,501,-260,1136,-890,-55,53,123
26870,183,-667,-3742,524,-228,1043,-865,-59,53,113
26880,184,-840,-3681,515,-215,893,-837,-59,53,113
26890,185,-757,-3599,640,-213,724,-809,-59,49,111
26900,186,-733,-3567,559,-212,535,-787,-59,49,111
26910,187,-453,-3600,648,-227,461,-786,-64,52,108
26920,188,-540,-3575,516,-231,350,-771,-64,52,108
26930,189,-436,-3545,632,-246,336,-729,-67,47,111
26940,190,-427,-3536,698,-243,400,-670,-67,47,111
26950,191,-413,-3520,687,-226,442,-594,-75,47,111
26960,192,-394,-3499,653,-189,439,-516,-75,47,111
26970,193,-423,-3518,611,-159,393,-453,-77,45,109
26980,194,-407,-3524,594,-133,315,-398,-77,45,109
26990,195,-442,-3543,582,-120,220,-356,-81,49,109
27000,196,-428,-3601,621,-105,131,-313,-81,49,109
27010,197,-397,-3679,652,-115,47,-269,-81,47,109
27020,198,-364,-3785,623,-137,-54,-222,-81,47,109
27030,199,-358,-3958,536,-154,-146,-173,-88,40,106
27040,200,-299,-4076,475,-155,-227,-118,-88,40,106
27050,201,-242,-4141,453,-163,-299,-56,-89,37,107
27060,202,-192,-4307,400,-185,-400,17,-89,37,107
27070,203,-183,-4589,335,-211,-523,102,-91,35,107
