AccFullScale=8g, GyrFullScale=2000dps, SamplingRate=100Hz, PacketType=RAW
timeStamp,packetCounter, AccX,AccY,AccZ, GyrX,GyrY,GyrZ, MagX,MagY,MagZ 
  2000,0,-170,-3866,1567,-23,10,-11,0,0,0
2010,1,-155,-3875,1569,-16,16,-10,0,0,0
2020,2,-133,-3899,1559,-19,18,-9,62,42,70
2030,3,-130,-3889,1603,-22,19,-10,62,42,70
2040,4,-109,-3875,1537,-17,18,-9,64,42,68
2050,5,-118,-3886,1548,-19,9,-11,64,42,68
2060,6,-112,-3847,1561,-15,16,-15,65,41,73
2070,7,-123,-3868,1578,-17,17,-17,65,41,73
2080,8,-112,-3868,1583,-19,20,-18,62,42,72
2090,9,-98,-3833,1555,-11,19,-21,62,42,72
2100,10,-124,-3883,1564,-6,19,-22,64,44,70
2110,11,-119,-3868,1557,-8,21,-24,64,44,70
2120,12,-149,-3905,1537,-9,21,-20,66,40,70
2130,13,-133,-3898,1561,-6,19,-17,66,40,70
2140,14,-133,-3872,1531,-5,20,-20,61,39,67
2150,15,-142,-3904,1511,-7,18,-22,61,39,67
2160,16,-146,-3874,1539,-6,15,-18,58,44,70
2170,17,-158,-3827,1505,-13,9,-20,58,44,70
2180,18,-139,-3873,1547,-6,10,-19,62,46,68
2190,19,-153,-3857,1547,-1,4,-19,62,46,68
2200,20,-176,-3879,1569,-4,11,-14,60,42,70
2210,21,-153,-3848,1589,-7,14,-14,60,42,70
2220,22,-159,-3869,1568,-15,15,-16,62,48,70
2230,23,-118,-3872,1561,-18,11,-10,62,48,70
2240,24,-116,-3856,1534,-11,9,-10,63,45,71
2250,25,-117,-3888,1541,-7,7,-7,63,45,71
2260,26,-141,-3878,1558,-5,6,-8,62,40,68
2270,27,-142,-3857,1524,-4,1,-9,62,40,68
2280,28,-135,-3888,1598,-6,0,-11,68,44,68
2290,29,-114,-3874,1548,-6,6,-8,68,44,68
2300,30,-143,-3886,1556,-12,7,-13,65,41,71
2310,31,-116,-3863,1557,-3,10,-15,65,41,71
2320,32,-153,-3839,1561,-10,10,-15,65,41,69
2330,33,-136,-3860,1569,-13,12,-8,65,41,69
2340,34,-93,-3837,1583,-7,19,-8,63,43,71
2350,35,-127,-3872,1537,-11,22,-8,63,43,71
2360,36,-125,-3874,1593,-10,20,-5,58,46,68
2370,37,-103,-3855,1582,-12,15,-6,58,46,68
2380,38,-107,-3869,1578,-6,9,-9,62,46,72
2390,39,-118,-3833,1562,-5,12,-11,62,46,72
2400,40,-141,-3865,1616,-8,18,-12,60,44,70
2410,41,-155,-3845,1574,-9,21,-14,60,44,70
2420,42,-131,-3876,1613,-8,28,-12,65,47,67
2430,43,-115,-3842,1567,-17,32,-18,65,47,67
2440,44,-119,-3885,1524,-18,25,-15,65,39,71
2450,45,-111,-3881,1532,-15,15,-20,65,39,71
2460,46,-145,-3870,1576,-9,9,-19,63,43,67
2470,47,-173,-3918,1550,-1,5,-22,63,43,67
2480,48,-167,-3865,1593,-2,4,-20,67,43,73
2490,49,-155,-3859,1573,-5,0,-20,67,43,73
2500,50,-142,-3886,1596,-7,2,-14,63,41,67
2510,51,-107,-3851,1543,-6,7,-15,63,41,67
2520,52,-109,-3882,1573,-2,5,-15,64,48,70
2530,53,-92,-3863,1592,-1,8,-15,64,48,70
2540,54,-132,-3879,1569,0,10,-12,61,43,67
2550,55,-106,-3859,1574,5,14,-10,61,43,67
2560,56,-122,-3825,1572,1,18,-16,63,41,73
2570,57,-154,-3880,1553,-3,16,-12,63,41,73
2580,58,-135,-3839,1589,-2,16,-14,64,42,72
2590,59,-150,-3836,1600,2,13,-19,64,42,72
2600,60,-167,-3882,1562,-1,7,-22,61,41,73
2610,61,-170,-3868,1562,0,4,-22,61,41,73
2620,62,-151,-3891,1559,-1,2,-24,58,38,68
2630,63,-155,-3874,1543,2,-1,-20,58,38,68
2640,64,-146,-3840,1548,-6,4,-17,68,48,66
2650,65,-128,-3861,1587,-1,7,-16,68,48,66
2660,66,-125,-3849,1572,1,10,-19,62,44,72
2670,67,-131,-3855,1561,2,16,-17,62,44,72
2680,68,-119,-3803,1557,-2,16,-18,62,42,72
2690,69,-127,-3837,1572,-11,18,-18,62,42,72
2700,70,-123,-3867,1551,-7,19,-14,62,46,68
2710,71,-128,-3864,1552,-6,13,-13,62,46,68
2720,72,-132,-3874,1559,-5,13,-11,66,44,72
2730,73,-136,-3843,1607,-12,6,-14,66,44,72
2740,74,-156,-3840,1602,-10,8,-17,65,45,69
2750,75,-169,-3839,1602,-15,10,-17,65,45,69
2760,76,-124,-3799,1606,-11,6,-19,65,49,65
2770,77,-140,-3885,1587,-12,10,-19,65,49,65
2780,78,-132,-3871,1575,-14,11,-21,63,43,73
2790,79,-116,-3877,1589,-14,17,-16,63,43,73
2800,80,-122,-3863,1575,-17,18,-16,58,48,70
2810,81,-112,-3852,1559,-15,20,-18,58,48,70
2820,82,-108,-3849,1598,-17,21,-18,60,40,68
2830,83,-119,-3848,1619,-16,18,-15,60,40,68
2840,84,-151,-3823,1562,-17,12,-21,68,44,70
2850,85,-194,-3865,1561,-21,8,-18,68,44,70
2860,86,-178,-3822,1608,-19,3,-17,61,43,69
2870,87,-217,-3870,1570,-18,9,-15,61,43,69
2880,88,-168,-3843,1600,-14,11,-17,61,43,65
2890,89,-139,-3865,1625,-11,13,-15,61,43,65
2900,90,-125,-3874,1544,-13,18,-10,66,44,66
2910,91,-78,-3860,1578,-13,16,-12,66,44,66
2920,92,-116,-3860,1561,-14,14,-15,65,39,65
2930,93,-100,-3875,1559,-15,14,-17,65,39,65
2940,94,-145,-3849,1611,-11,16,-17,61,49,71
2950,95,-132,-3872,1578,-7,17,-15,61,49,71
2960,96,-155,-3846,1557,-4,13,-14,58,44,70
2970,97,-174,-3850,1605,-9,13,-17,58,44,70
2980,98,-164,-3838,1599,-6,13,-17,58,42,70
2990,99,-140,-3839,1561,-5,3,-23,58,42,70
3000,100,-149,-3857,1578,-4,1,-18,65,43,73
3010,101,-167,-3839,1584,-1,-3,-17,65,43,73
3020,102,-160,-3885,1593,-9,2,-19,62,40,68
3030,103,-166,-3889,1590,-10,-1,-13,62,40,68
3040,104,-161,-3828,1569,-6,1,-11,65,43,63
3050,105,-180,-3900,1571,-5,-1,-9,65,43,63
3060,106,-142,-3857,1567,-9,3,-8,67,39,71
3070,107,-146,-3861,1567,-12,0,-12,67,39,71
3080,108,-125,-3882,1578,-9,2,-11,58,44,72
3090,109,-116,-3827,1578,-9,-1,-13,58,44,72
3100,110,-122,-3853,1547,-10,-1,-17,67,43,69
3110,111,-115,-3819,1587,-7,0,-19,67,43,69
3120,112,-131,-3867,1576,-13,3,-19,64,44,70
3130,113,-143,-3850,1551,-18,5,-22,64,44,70
3140,114,-139,-3851,1614,-20,9,-15,65,45,69
3150,115,-151,-3882,1558,-22,14,-16,65,45,69
3160,116,-164,-3867,1573,-22,14,-13,63,45,71
3170,117,-151,-3863,1568,-19,13,-16,63,45,71
3180,118,-160,-3903,1577,-12,3,-15,59,43,69
3190,119,-150,-3864,1605,-11,5,-14,59,43,69
3200,120,-149,-3884,1608,-17,3,-16,67,45,67
3210,121,-144,-3857,1581,-14,5,-17,67,45,67
3220,122,-133,-3843,1583,-19,12,-18,64,46,68
3230,123,-123,-3882,1600,-20,15,-17,64,46,68
3240,124,-104,-3845,1616,-12,16,-16,61,41,69
3250,125,-127,-3866,1582,-13,18,-17,61,41,69
3260,126,-116,-3848,1596,-17,15,-19,60,42,72
3270,127,-147,-3832,1603,-14,12,-17,60,42,72
3280,128,-153,-3886,1587,-16,10,-15,62,40,66
3290,129,-145,-3872,1592,-11,11,-15,62,40,66
3300,130,-154,-3879,1604,-6,10,-16,62,42,72
3310,131,-140,-3855,1605,-9,8,-16,62,42,72
3320,132,-137,-3858,1608,-14,10,-20,59,49,69
3330,133,-162,-3884,1569,-15,6,-21,59,49,69
3340,134,-112,-3850,1595,-13,9,-18,62,42,66
3350,135,-153,-3877,1591,-14,10,-15,62,42,66
3360,136,-135,-3821,1597,-15,10,-14,60,44,70
3370,137,-111,-3804,1586,-14,6,-14,60,44,70
3380,138,-123,-3841,1568,-16,8,-14,66,44,70
3390,139,-124,-3791,1598,-12,5,-19,66,44,70
3400,140,-93,-3868,1597,-14,6,-17,64,46,68
3410,141,-143,-3857,1586,-18,3,-18,64,46,68
3420,142,-122,-3863,1589,-12,4,-20,63,47,69
3430,143,-128,-3865,1650,-13,3,-19,63,47,69
3440,144,-139,-3864,1590,-13,8,-17,63,43,69
3450,145,-129,-3879,1575,-21,11,-14,63,43,69
3460,146,-128,-3889,1553,-16,9,-19,62,44,74
3470,147,-116,-3852,1544,-10,6,-18,62,44,74
3480,148,-123,-3860,1624,-8,2,-16,60,40,72
3490,149,-122,-3842,1646,-5,1,-21,60,40,72
3500,150,-113,-3847,1596,-6,0,-21,61,43,71
3510,151,-140,-3852,1580,-13,4,-20,61,43,71
3520,152,-112,-3821,1586,-17,7,-16,65,43,65
3530,153,-95,-3844,1562,-15,10,-15,65,43,65
3540,154,-105,-3824,1559,-17,8,-14,58,44,70
3550,155,-109,-3843,1556,-12,12,-15,58,44,70
3560,156,-114,-3861,1599,-17,10,-15,63,41,69
3570,157,-137,-3840,1581,-19,10,-17,63,41,69
3580,158,-170,-3872,1601,-16,7,-14,62,42,70
3590,159,-179,-3856,1576,-19,6,-18,62,42,70
3600,160,-163,-3874,1624,-21,7,-17,61,41,71
3610,161,-139,-3872,1583,-15,6,-16,61,41,71
3620,162,-122,-3858,1578,-18,2,-16,61,41,71
3630,163,-93,-3852,1597,-19,-2,-15,61,41,71
3640,164,-126,-3836,1615,-19,-4,-15,65,41,69
3650,165,-120,-3822,1551,-24,1,-13,65,41,69
3660,166,-126,-3869,1571,-22,7,-15,61,39,71
3670,167,-108,-3821,1582,-24,6,-14,61,39,71
3680,168,-142,-3875,1612,-25,8,-12,61,43,71
3690,169,-111,-3843,1611,-27,8,-16,61,43,71
3700,170,-136,-3836,1610,-26,5,-12,62,42,70
3710,171,-149,-3863,1606,-21,5,-9,62,42,70
3720,172,-110,-3836,1589,-26,0,-9,60,48,64
3730,173,-124,-3855,1590,-20,-1,-8,60,48,64
3740,174,-108,-3853,1630,-30,6,-9,63,43,67
3750,175,-129,-3855,1596,-27,8,-16,63,43,67
3760,176,-103,-3864,1590,-23,7,-13,63,45,71
3770,177,-125,-3862,1598,-22,7,-11,63,45,71
3780,178,-136,-3865,1620,-23,5,-13,63,43,67
3790,179,-131,-3836,1621,-24,8,-16,63,43,67
3800,180,-112,-3831,1591,-22,5,-14,65,43,75
3810,181,-137,-3847,1549,-23,6,-13,65,43,75
3820,182,-102,-3828,1600,-18,3,-13,65,45,71
3830,183,-115,-3851,1575,-21,3,-14,65,45,71
3840,184,-103,-3858,1608,-24,5,-11,62,40,72
3850,185,-121,-3865,1546,-27,6,-13,62,40,72
3860,186,-119,-3879,1568,-25,8,-16,62,42,76
3870,187,-98,-3855,1577,-28,11,-11,62,42,76
3880,188,-126,-3840,1594,-29,14,-12,62,44,72
3890,189,-133,-3862,1574,-26,15,-12,62,44,72
3900,190,-126,-3848,1586,-26,17,-10,60,42,70
3910,191,-100,-3863,1539,-31,13,-11,60,42,70
3920,192,-113,-3857,1588,-31,15,-8,57,41,69
3930,193,-124,-3830,1587,-25,9,-13,57,41,69
3940,194,-127,-3846,1595,-30,6,-13,60,42,68
3950,195,-133,-3879,1609,-25,5,-12,60,42,68
3960,196,-130,-3860,1575,-24,7,-14,62,42,66
3970,197,-145,-3854,1586,-25,9,-11,62,42,66
3980,198,-130,-3849,1593,-22,11,-10,57,43,71
3990,199,-111,-3840,1553,-21,12,-14,57,43,71
4000,200,-135,-3867,1592,-25,9,-12,63,39,67
4010,201,-98,-3856,1568,-18,7,-5,63,39,67
4020,202,-124,-3861,1572,-19,6,-7,65,41,71
4030,203,-116,-3842,1600,-23,5,-10,65,41,71
4040,204,-120,-3826,1611,-28,12,-9,66,42,76
4050,205,-135,-3839,1587,-29,10,-11,66,42,76
4060,206,-176,-3796,1592,-24,10,-12,65,45,75
4070,207,-176,-3837,1592,-20,11,-15,65,45,75
4080,208,-139,-3848,1589,-20,10,-22,59,39,73
4090,209,-105,-3847,1588,-19,10,-20,59,39,73
4100,210,-122,-3868,1580,-25,5,-21,62,46,70
4110,211,-135,-3895,1563,-25,5,-22,62,46,70
4120,212,-135,-3923,1559,-29,6,-22,66,42,70
4130,213,-110,-3895,1546,-31,7,-21,66,42,70
4140,214,-144,-3900,1545,-28,6,-18,65,43,65
4150,215,-136,-3885,1559,-27,8,-13,65,43,65
4160,216,-133,-3865,1515,-29,12,-13,64,38,70
4170,217,-168,-3887,1557,-23,14,-10,64,38,70
4180,218,-161,-3880,1582,-20,13,-9,66,42,70
4190,219,-128,-3851,1517,-21,15,-10,66,42,70
4200,220,-165,-3866,1562,-23,15,-11,59,45,73
4210,221,-141,-3853,1479,-21,15,-16,59,45,73
4220,222,-128,-3849,1570,-17,13,-15,65,41,67
4230,223,-125,-3866,1531,-23,10,-15,65,41,67
4240,224,-157,-3842,1537,-26,4,-12,63,43,71
4250,225,-138,-3861,1543,-22,8,-14,63,43,71
4260,226,-162,-3839,1547,-23,8,-11,60,48,70
4270,227,-146,-3870,1531,-25,7,-12,60,48,70
4280,228,-152,-3854,1537,-23,6,-14,65,43,63
4290,229,-179,-3857,1581,-24,9,-15,65,43,63
4300,230,-150,-3898,1545,-24,8,-15,64,44,70
4310,231,-165,-3859,1514,-23,8,-15,64,44,70
4320,232,-155,-3908,1542,-24,3,-13,66,40,70
4330,233,-155,-3873,1501,-13,6,-8,66,40,70
4340,234,-137,-3884,1553,-15,9,-6,62,40,68
4350,235,-127,-3882,1524,-19,16,-8,62,40,68
4360,236,-85,-3865,1531,-20,15,-9,64,42,72
4370,237,-128,-3848,1548,-23,12,-9,64,42,72
4380,238,-127,-3846,1554,-20,11,-10,61,43,65
4390,239,-130,-3848,1545,-15,9,-15,61,43,65
4400,240,-106,-3885,1567,-16,13,-16,62,46,72
4410,241,-145,-3876,1520,-18,16,-21,62,46,72
4420,242,-183,-3876,1567,-20,11,-21,62,42,66
4430,243,-183,-3853,1529,-22,12,-20,62,42,66
4440,244,-174,-3839,1594,-20,10,-25,63,39,69
4450,245,-173,-3880,1530,-16,8,-24,63,39,69
4460,246,-166,-3859,1539,-19,6,-16,60,44,66
4470,247,-173,-3857,1520,-19,4,-16,60,44,66
4480,248,-163,-3891,1583,-20,3,-14,66,38,72
4490,249,-138,-3858,1513,-16,1,-10,66,38,72
4500,250,-114,-3872,1548,-17,-3,-10,62,44,72
4510,251,-115,-3885,1582,-16,-2,-8,62,44,72
4520,252,-139,-3888,1529,-15,0,-11,60,42,72
4530,253,-148,-3883,1545,-17,4,-9,60,42,72
4540,254,-144,-3857,1564,-16,6,-14,67,43,71
4550,255,-174,-3871,1521,-11,3,-10,67,43,71
4560,0,-160,-3852,1580,-14,1,-13,62,42,72
4570,1,-157,-3843,1554,-11,-4,-13,62,42,72
4580,2,-147,-3890,1564,-9,-1,-14,64,44,74
4590,3,-157,-3873,1550,-8,-1,-16,64,44,74
4600,4,-121,-3857,1550,-5,-5,-16,62,44,68
4610,5,-136,-3874,1560,-7,-8,-16,62,44,68
4620,6,-128,-3846,1580,-7,-2,-15,60,44,70
4630,7,-132,-3878,1529,-8,3,-13,60,44,70
4640,8,-110,-3855,1549,-16,7,-10,62,42,74
4650,9,-163,-3869,1504,-19,6,-9,62,42,74
4660,10,-135,-3863,1551,-14,5,-10,63,41,69
4670,11,-152,-3850,1597,-8,10,-12,63,41,69
4680,12,-149,-3881,1541,-7,14,-15,63,43,65
4690,13,-137,-3866,1534,-5,16,-15,63,43,65
4700,14,-104,-3878,1547,-5,13,-17,62,40,72
4710,15,-102,-3876,1570,-4,5,-19,62,40,72
4720,16,-107,-3835,1568,-8,8,-18,60,42,70
4730,17,-124,-3897,1566,-9,13,-21,60,42,70
4740,18,-113,-3853,1561,-10,12,-21,59,45,71
4750,19,-151,-3851,1558,-16,16,-20,59,45,71
4760,20,-160,-3854,1571,-18,15,-21,57,43,77
4770,21,-140,-3842,1559,-13,15,-18,57,43,77
4780,22,-137,-3854,1548,-14,10,-21,64,46,68
4790,23,-143,-3855,1570,-9,13,-14,64,46,68
4800,24,-161,-3856,1572,-4,11,-13,62,44,64
4810,25,-168,-3864,1564,-14,10,-11,62,44,64
4820,26,-144,-3844,1582,-14,15,-10,61,43,75
4830,27,-161,-3875,1597,-15,20,-6,61,43,75
4840,28,-122,-3892,1575,-13,24,-13,61,45,65
4850,29,-117,-3867,1540,-12,23,-10,61,45,65
4860,30,-101,-3878,1554,-10,17,-16,64,44,68
4870,31,-121,-3861,1615,-11,15,-16,64,44,68
4880,32,-159,-3895,1552,-9,16,-18,62,46,72
4890,33,-142,-3830,1572,-6,19,-19,62,46,72
4900,34,-147,-3858,1548,-11,19,-21,63,43,71
4910,35,-127,-3848,1549,-12,17,-20,63,43,71
4920,36,-125,-3855,1576,-8,16,-25,59,39,73
4930,37,-143,-3892,1584,-8,8,-22,59,39,73
4940,38,-146,-3849,1579,-9,12,-22,65,41,69
4950,39,-158,-3827,1577,-13,16,-17,65,41,69
4960,40,-172,-3861,1628,-14,14,-11,61,45,67
4970,41,-137,-3811,1557,-16,13,-10,61,45,67
4980,42,-159,-3860,1571,-16,8,-10,64,42,68
4990,43,-143,-3842,1552,-14,4,-12,64,42,68
5000,44,-161,-3884,1590,-8,-2,-13,61,41,69
5010,45,-142,-3893,1576,-16,-3,-15,61,41,69
5020,46,-124,-3838,1594,-16,-7,-14,60,40,72
5030,47,-141,-3882,1561,-10,-7,-16,60,40,72
5040,48,-117,-3853,1591,-13,-4,-16,64,38,68
5050,49,-134,-3868,1592,-11,-3,-17,64,38,68
5060,50,-145,-3850,1571,-9,-2,-16,63,35,75
5070,51,-110,-3824,1559,-12,-5,-17,63,35,75
5080,52,-138,-3869,1567,-15,-8,-17,64,36,70
5090,53,-126,-3875,1567,-5,-11,-15,64,36,70
5100,54,-151,-3849,1567,-9,-12,-18,64,42,64
5110,55,-130,-3868,1580,-10,-6,-15,64,42,64
5120,56,-111,-3844,1594,-5,3,-14,63,43,67
5130,57,-107,-3854,1559,-8,5,-17,63,43,67
5140,58,-93,-3870,1556,-12,14,-20,64,44,70
5150,59,-124,-3864,1586,-15,17,-14,64,44,70
5160,60,-128,-3855,1548,-18,19,-19,63,43,67
5170,61,-98,-3849,1593,-15,24,-20,63,43,67
5180,62,-126,-3866,1569,-15,21,-22,62,44,76
5190,63,-138,-3841,1564,-18,16,-21,62,44,76
5200,64,-148,-3837,1559,-23,12,-23,65,41,69
5210,65,-156,-3878,1551,-17,12,-24,65,41,69
5220,66,-153,-3847,1602,-12,20,-20,60,46,72
5230,67,-142,-3840,1583,-13,23,-25,60,46,72
5240,68,-140,-3858,1541,-17,22,-24,58,46,70
5250,69,-136,-3852,1533,-21,20,-26,58,46,70
5260,70,-127,-3897,1583,-14,18,-27,61,41,67
5270,71,-135,-3855,1558,-15,15,-21,61,41,67
5280,72,-155,-3852,1573,-14,16,-17,62,44,72
5290,73,-140,-3853,1556,-19,17,-18,62,44,72
5300,74,-128,-3847,1583,-15,13,-11,63,43,71
5310,75,-164,-3893,1581,-11,6,-16,63,43,71
5320,76,-132,-3856,1582,-9,0,-19,65,43,71
5330,77,-155,-3861,1599,-6,-1,-18,65,43,71
5340,78,-142,-3864,1606,-3,4,-22,66,44,70
5350,79,-122,-3851,1574,-8,11,-22,66,44,70
5360,80,-135,-3878,1594,-8,15,-24,58,42,70
5370,81,-63,-3846,1545,-11,15,-20,58,42,70
5380,82,-114,-3844,1555,-7,14,-19,66,40,68
5390,83,-130,-3898,1562,-14,16,-19,66,40,68
5400,84,-121,-3867,1592,-12,12,-18,66,38,70
5410,85,-164,-3877,1554,-9,13,-17,66,38,70
5420,86,-145,-3848,1589,-8,9,-21,63,45,65
5430,87,-133,-3838,1552,-4,4,-23,63,45,65
5440,88,-141,-3845,1526,-7,-3,-21,60,42,70
5450,89,-129,-3831,1581,-10,-2,-21,60,42,70
5460,90,-114,-3854,1577,-13,5,-17,65,41,71
5470,91,-114,-3853,1553,-14,14,-13,65,41,71
5480,92,-126,-3832,1572,-13,13,-14,63,45,71
5490,93,-140,-3878,1540,-14,14,-11,63,45,71
5500,94,-140,-3854,1572,-19,13,-10,60,44,68
5510,95,-152,-3887,1561,-19,5,-12,60,44,68
5520,96,-159,-3865,1573,-15,1,-9,64,44,70
5530,97,-157,-3881,1566,-17,-5,-7,64,44,70
5540,98,-138,-3849,1563,-14,-7,-12,61,43,71
5550,99,-153,-3816,1583,-15,-5,-12,61,43,71
5560,100,-127,-3857,1599,-21,6,-13,58,44,74
5570,101,-119,-3859,1571,-17,8,-21,58,44,74
5580,102,-94,-3838,1584,-17,11,-18,67,37,71
5590,103,-108,-3841,1575,-20,7,-16,67,37,71
5600,104,-140,-3821,1603,-25,9,-16,58,42,64
5610,105,-153,-3842,1552,-20,13,-14,58,42,64
5620,106,-144,-3831,1578,-17,9,-16,65,43,71
5630,107,-139,-3832,1560,-12,7,-12,65,43,71
5640,108,-148,-3874,1610,-16,2,-13,62,44,70
5650,109,-131,-3854,1575,-14,9,-12,62,44,70
5660,110,-131,-3894,1589,-19,10,-18,60,44,68
5670,111,-125,-3855,1569,-23,13,-20,60,44,68
5680,112,-103,-3888,1570,-22,15,-23,66,42,68
5690,113,-98,-3855,1570,-20,15,-23,66,42,68
5700,114,-119,-3841,1596,-20,15,-21,62,44,74
5710,115,-132,-3868,1573,-20,19,-23,62,44,74
5720,116,-158,-3837,1579,-20,19,-19,65,43,71
5730,117,-138,-3861,1531,-18,19,-16,65,43,71
5740,118,-150,-3875,1617,-16,15,-14,64,40,62
5750,119,-150,-3855,1569,-12,10,-14,64,40,62
5760,120,-168,-3857,1577,-17,11,-13,60,40,74
5770,121,-153,-3851,1580,-17,13,-14,60,40,74
5780,122,-143,-3833,1577,-19,11,-14,64,38,72
5790,123,-130,-3865,1531,-20,3,-9,64,38,72
5800,124,-130,-3838,1597,-17,5,-9,62,42,72
5810,125,-147,-3862,1603,-14,6,-11,62,42,72
5820,126,-168,-3871,1587,-20,9,-10,61,45,71
5830,127,-155,-3834,1569,-17,11,-9,61,45,71
5840,128,-135,-3872,1561,-20,8,-16,62,48,70
5850,129,-148,-3836,1582,-22,5,-12,62,48,70
5860,130,-151,-3845,1572,-19,7,-9,67,43,69
5870,131,-144,-3868,1549,-14,9,-13,67,43,69
5880,132,-123,-3861,1560,-15,6,-14,63,43,71
5890,133,-115,-3894,1531,-17,4,-15,63,43,71
5900,134,-112,-3867,1569,-9,-3,-13,63,37,67
5910,135,-157,-3851,1557,-13,-5,-16,63,37,67
5920,136,-107,-3835,1595,-9,3,-16,61,39,73
5930,137,-145,-3863,1600,-15,2,-17,61,39,73
5940,138,-104,-3875,1607,-21,2,-15,61,47,69
5950,139,-101,-3850,1585,-18,8,-13,61,47,69
5960,140,-115,-3866,1557,-20,9,-11,64,44,68
5970,141,-148,-3851,1539,-14,12,-13,64,44,68
5980,142,-153,-3858,1577,-15,11,-15,59,47,67
5990,143,-135,-3845,1567,-16,13,-11,59,47,67
6000,144,-127,-3849,1585,-17,9,-15,61,39,71
6010,145,-168,-3850,1539,-18,6,-17,61,39,71
6020,146,-138,-3860,1587,-19,5,-19,63,41,71
6030,147,-127,-3819,1583,-20,6,-18,63,41,71
6040,148,-127,-3870,1577,-22,7,-17,64,44,72
6050,149,-113,-3853,1571,-20,5,-14,64,44,72
6060,150,-118,-3877,1577,-19,9,-14,62,42,72
6070,151,-107,-3859,1553,-26,9,-16,62,42,72
6080,152,-145,-3866,1542,-20,7,-15,64,42,72
6090,153,-147,-3866,1564,-19,8,-14,64,42,72
6100,154,-141,-3854,1564,-21,11,-18,59,45,73
6110,155,-157,-3864,1574,-16,17,-16,59,45,73
6120,156,-173,-3861,1536,-21,16,-16,58,42,74
6130,157,-153,-3839,1551,-14,6,-16,58,42,74
6140,158,-180,-3899,1568,-15,-1,-14,65,43,69
6150,159,-171,-3861,1599,-13,3,-13,65,43,69
6160,160,-170,-3849,1545,-16,10,-14,61,45,69
6170,161,-123,-3867,1596,-20,8,-13,61,45,69
6180,162,-114,-3855,1592,-19,4,-12,61,47,69
6190,163,-105,-3890,1585,-20,3,-11,61,47,69
6200,164,-112,-3854,1566,-13,6,-12,57,45,69
6210,165,-119,-3858,1565,-16,6,-18,57,45,69
6220,166,-136,-3879,1563,-22,8,-15,59,47,67
6230,167,-139,-3822,1568,-25,12,-20,59,47,67
6240,168,-147,-3858,1569,-19,12,-23,56,42,68
6250,169,-126,-3863,1515,-18,16,-19,56,42,68
6260,170,-156,-3876,1571,-19,16,-21,60,46,66
6270,171,-143,-3871,1560,-16,18,-21,60,46,66
6280,172,-125,-3866,1561,-14,14,-19,66,42,66
6290,173,-132,-3876,1568,-9,14,-17,66,42,66
6300,174,-121,-3855,1540,-14,9,-11,63,45,73
6310,175,-147,-3846,1582,-21,13,-10,63,45,73
6320,176,-117,-3885,1603,-22,8,-10,60,46,66
6330,177,-156,-3832,1531,-22,7,-12,60,46,66
6340,178,-146,-3855,1531,-20,9,-12,62,46,68
6350,179,-134,-3827,1538,-15,12,-13,62,46,68
6360,180,-101,-3861,1592,-15,12,-15,62,42,70
6370,181,-93,-3877,1572,-12,20,-13,62,42,70
6380,182,-121,-3864,1544,-17,20,-14,67,39,65
6390,183,-121,-3882,1523,-17,22,-13,67,39,65
6400,184,-117,-3885,1542,-13,22,-13,60,42,66
6410,185,-123,-3900,1551,-8,16,-11,60,42,66
6420,186,-127,-3918,1605,-14,17,-13,64,44,68
6430,187,-168,-3864,1566,-20,9,-16,64,44,68
6440,188,-173,-3845,1542,-23,5,-16,58,42,68
6450,189,-141,-3834,1566,-27,4,-17,58,42,68
6460,190,-122,-3821,1553,-25,5,-13,64,44,68
6470,191,-121,-3831,1602,-29,5,-15,64,44,68
6480,192,-123,-3830,1565,-28,7,-13,62,48,72
6490,193,-107,-3856,1558,-31,15,-10,62,48,72
6500,194,-138,-3836,1534,-25,16,-10,65,39,69
6510,195,-127,-3896,1537,-23,14,-10,65,39,69
6520,196,-134,-3910,1585,-12,8,-10,61,41,73
6530,197,-132,-3863,1592,-16,1,-7,61,41,73
6540,198,-174,-3889,1575,-28,-4,-8,65,39,67
6550,199,-169,-3859,1553,-22,-10,-13,65,39,67
6560,200,-190,-3854,1546,-12,-10,-13,59,45,63
6570,201,-187,-3878,1588,-9,-9,-13,59,45,63
6580,202,-180,-3859,1589,-13,-9,-15,62,46,74
6590,203,-168,-3878,1527,-18,-11,-10,62,46,74
6600,204,-125,-3909,1581,-22,-11,-9,62,42,72
6610,205,-134,-3869,1554,-23,-14,-8,62,42,72
6620,206,-94,-3893,1514,-18,-15,-6,64,46,72
6630,207,-80,-3849,1528,-5,-8,-2,64,46,72
6640,208,-104,-3880,1573,-5,-5,-4,62,46,74
6650,209,-87,-3849,1532,-7,-6,-11,62,46,74
6660,210,-148,-3835,1555,-5,-2,-10,59,41,71
6670,211,-126,-3835,1528,-17,3,-16,59,41,71
6680,212,-153,-3797,1603,-17,6,-17,66,46,68
6690,213,-149,-3856,1567,-14,14,-18,66,46,68
6700,214,-142,-3864,1574,-17,16,-21,63,45,67
6710,215,-177,-3847,1553,-24,16,-24,63,45,67
6720,216,-152,-3860,1564,-30,11,-19,59,43,69
6730,217,-145,-3836,1564,-29,9,-16,59,43,69
6740,218,-161,-3884,1562,-29,6,-15,58,42,72
6750,219,-141,-3862,1514,-31,5,-15,58,42,72
6760,220,-133,-3860,1540,-28,1,-13,65,43,71
6770,221,-164,-3859,1587,-27,1,-10,65,43,71
6780,222,-140,-3842,1546,-32,0,-9,69,43,71
6790,223,-143,-3856,1570,-31,-1,-7,69,43,71
6800,224,-126,-3848,1550,-31,3,-5,64,40,68
6810,225,-127,-3846,1572,-22,13,-6,64,40,68
6820,226,-144,-3843,1572,-19,19,-6,65,39,69
6830,227,-138,-3859,1577,-25,23,-5,65,39,69
6840,228,-136,-3864,1588,-25,19,-5,61,39,73
6850,229,-120,-3877,1572,-17,15,-8,61,39,73
6860,230,-133,-3888,1600,-14,15,-9,61,41,71
6870,231,-114,-3864,1566,-13,17,-15,61,41,71
6880,232,-156,-3876,1588,-15,18,-14,59,43,71
6890,233,-133,-3855,1565,-16,18,-20,59,43,71
6900,234,-151,-3852,1558,-26,10,-21,62,42,68
6910,235,-159,-3872,1575,-16,13,-22,62,42,68
6920,236,-159,-3865,1587,-22,13,-24,65,47,73
6930,237,-163,-3882,1572,-20,20,-18,65,47,73
6940,238,-128,-3874,1565,-24,22,-16,64,44,70
6950,239,-140,-3863,1577,-24,22,-10,64,44,70
6960,240,-106,-3868,1558,-19,17,-10,64,46,70
6970,241,-140,-3868,1563,-18,15,-6,64,46,70
6980,242,-151,-3844,1548,-16,19,-4,61,41,73
6990,243,-159,-3877,1512,-16,20,-6,61,41,73
7000,244,-170,-3842,1509,-11,19,-5,68,44,72
7010,245,-150,-3888,1546,-14,13,-10,68,44,72
7020,246,-163,-3885,1540,-11,4,-11,63,45,75
7030,247,-145,-3897,1547,-13,-3,-17,63,45,75
7040,248,-151,-3897,1529,-19,-4,-16,65,47,71
7050,249,-138,-3874,1548,-8,-5,-14,65,47,71
7060,250,-144,-3867,1573,-12,-1,-13,61,41,69
7070,251,-115,-3841,1594,-13,7,-9,61,41,69
7080,252,-140,-3861,1602,-16,10,-11,70,40,70
7090,253,-129,-3830,1557,-12,11,-8,70,40,70
7100,254,-135,-3830,1565,-8,10,-6,60,48,70
7110,255,-133,-3840,1560,-12,8,-7,60,48,70
7120,0,-118,-3869,1548,-15,10,-6,63,41,69
7130,1,-143,-3865,1531,-6,11,-7,63,41,69
7140,2,-125,-3883,1517,-11,8,-9,67,47,71
7150,3,-159,-3853,1535,-12,8,-16,67,47,71
7160,4,-153,-3899,1515,-17,10,-16,62,42,68
7170,5,-99,-3864,1553,-14,7,-17,62,42,68
7180,6,-115,-3863,1535,-12,5,-24,67,45,73
7190,7,-97,-3887,1561,-11,7,-25,67,45,73
7200,8,-130,-3857,1583,-9,8,-27,63,43,69
7210,9,-134,-3891,1586,-9,12,-24,63,43,69
7220,10,-134,-3884,1535,-7,13,-21,68,46,70
7230,11,-145,-3904,1590,-9,15,-22,68,46,70
7240,12,-169,-3852,1572,-12,13,-21,64,42,72
7250,13,-176,-3851,1540,-16,7,-16,64,42,72
7260,14,-176,-3868,1509,-15,5,-14,64,42,70
7270,15,-165,-3833,1547,-15,0,-13,64,42,70
7280,16,-182,-3884,1555,-14,-6,-13,57,41,69
7290,17,-168,-3834,1554,-19,-6,-12,57,41,69
7300,18,-147,-3851,1541,-19,-7,-12,61,43,65
7310,19,-169,-3873,1538,-16,-2,-12,61,43,65
7320,20,-132,-3825,1558,-17,-2,-12,65,41,73
7330,21,-145,-3853,1558,-13,-1,-10,65,41,73
7340,22,-143,-3880,1610,-17,-1,-14,65,43,71
7350,23,-145,-3853,1564,-19,0,-9,65,43,71
7360,24,-160,-3903,1570,-19,2,-5,66,42,70
7370,25,-102,-3865,1549,-15,5,-8,66,42,70
7380,26,-157,-3890,1539,-9,6,-2,57,37,73
7390,27,-150,-3885,1555,-2,10,-7,57,37,73
7400,28,-105,-3884,1554,-1,8,-12,63,45,71
7410,29,-121,-3885,1534,-5,9,-16,63,45,71
7420,30,-88,-3885,1559,-6,5,-22,59,41,69
7430,31,-144,-3865,1559,-6,5,-21,59,41,69
7440,32,-130,-3859,1570,-10,12,-24,60,44,68
7450,33,-116,-3844,1550,-14,19,-23,60,44,68
7460,34,-132,-3842,1545,-9,24,-19,57,43,67
7470,35,-111,-3820,1554,-3,24,-17,57,43,67
7480,36,-105,-3853,1528,-10,17,-14,64,40,68
7490,37,-140,-3873,1536,-13,12,-13,64,40,68
7500,38,-144,-3859,1542,-11,13,-14,68,40,70
7510,39,-163,-3880,1557,-9,15,-18,68,40,70
7520,40,-182,-3883,1557,-14,14,-19,62,44,68
7530,41,-156,-3887,1531,-26,13,-20,62,44,68
7540,42,-116,-3865,1541,-25,13,-20,62,40,74
7550,43,-136,-3841,1569,-16,11,-21,62,40,74
7560,44,-119,-3873,1563,-14,9,-19,59,43,65
7570,45,-121,-3847,1522,-13,6,-18,59,43,65
7580,46,-165,-3838,1556,-13,1,-18,60,42,70
7590,47,-189,-3867,1542,-17,4,-15,60,42,70
7600,48,-160,-3853,1579,-18,11,-17,66,40,74
7610,49,-161,-3886,1582,-23,13,-11,66,40,74
7620,50,-148,-3866,1537,-23,16,-12,62,46,66
7630,51,-122,-3869,1575,-15,13,-11,62,46,66
7640,52,-122,-3878,1540,-15,7,-7,67,39,63
7650,53,-130,-3833,1546,-14,6,-7,67,39,63
7660,54,-122,-3885,1567,-7,4,-12,60,44,74
7670,55,-133,-3869,1574,-7,3,-12,60,44,74
7680,56,-144,-3870,1559,-5,4,-13,59,37,73
7690,57,-157,-3903,1569,-6,11,-16,59,37,73
7700,58,-121,-3836,1553,-14,10,-13,64,46,72
7710,59,-147,-3871,1559,-11,9,-18,64,46,72
7720,60,-113,-3839,1566,-11,6,-13,56,36,66
7730,61,-163,-3851,1570,-12,7,-16,56,36,66
7740,62,-197,-3852,1563,-14,2,-16,65,43,71
7750,63,-190,-3839,1567,-12,2,-19,65,43,71
7760,64,-191,-3839,1556,-9,-1,-16,59,41,69
7770,65,-162,-3875,1556,-6,3,-17,59,41,69
7780,66,-162,-3838,1595,-5,2,-19,65,41,69
7790,67,-135,-3892,1546,-6,4,-15,65,41,69
7800,68,-110,-3839,1582,-9,7,-17,59,41,73
7810,69,-84,-3882,1542,-5,8,-16,59,41,73
7820,70,-86,-3879,1574,-9,7,-16,60,40,74
7830,71,-111,-3855,1539,-9,6,-20,60,40,74
7840,72,-128,-3869,1597,-11,13,-19,67,43,71
7850,73,-163,-3821,1558,-8,18,-21,67,43,71
7860,74,-155,-3872,1554,-7,16,-20,64,42,68
7870,75,-150,-3851,1544,-10,17,-22,64,42,68
7880,76,-160,-3857,1596,-12,16,-22,59,41,73
7890,77,-152,-3876,1559,-8,13,-20,59,41,73
7900,78,-112,-3853,1608,-3,16,-22,62,40,72
7910,79,-116,-3869,1578,-4,14,-22,62,40,72
7920,80,-128,-3849,1599,-12,14,-24,61,43,69
7930,81,-130,-3858,1542,-15,16,-20,61,43,69
7940,82,-139,-3860,1561,-14,16,-20,65,45,69
7950,83,-136,-3833,1579,-16,19,-22,65,45,69
7960,84,-159,-3840,1561,-20,22,-19,64,42,66
7970,85,-112,-3849,1540,-17,22,-16,64,42,66
7980,86,-159,-3843,1562,-12,22,-16,60,42,70
7990,87,-155,-3851,1571,-14,20,-16,60,42,70
8000,88,-151,-3845,1572,-9,16,-16,62,38,70
8010,89,-155,-3867,1559,-11,9,-16,62,38,70
8020,90,-161,-3894,1578,-10,9,-20,61,45,67
8030,91,-149,-3820,1563,-7,4,-22,61,45,67
8040,92,-156,-3872,1592,-4,3,-21,64,46,72
8050,93,-144,-3834,1624,-14,12,-21,64,46,72
8060,94,-145,-3839,1623,-12,9,-20,68,44,68
8070,95,-138,-3833,1580,-20,14,-16,68,44,68
8080,96,-146,-3846,1548,-16,14,-20,67,43,73
8090,97,-143,-3844,1538,-18,12,-15,67,43,73
8100,98,-124,-3823,1541,-14,9,-16,62,44,70
8110,99,-145,-3873,1558,-11,5,-17,62,44,70
8120,100,-160,-3877,1571,-8,0,-15,66,42,74
8130,101,-170,-3894,1569,-14,0,-16,66,42,74
8140,102,-180,-3873,1606,-18,0,-15,67,41,71
8150,103,-160,-3871,1576,-16,8,-17,67,41,71
8160,104,-146,-3861,1582,-10,15,-20,63,47,75
8170,105,-132,-3846,1552,-11,12,-19,63,47,75
8180,106,-106,-3844,1572,-16,4,-17,63,41,67
8190,107,-146,-3833,1581,-11,-2,-17,63,41,67
8200,108,-115,-3836,1586,-14,0,-15,63,45,67
8210,109,-139,-3865,1596,-22,6,-11,63,45,67
8220,110,-137,-3828,1580,-28,11,-10,59,43,71
8230,111,-122,-3834,1604,-29,11,-9,59,43,71
8240,112,-136,-3856,1573,-31,8,-9,61,41,65
8250,113,-147,-3847,1588,-21,1,-11,61,41,65
8260,114,-120,-3902,1556,-17,-4,-10,59,39,73
8270,115,-163,-3876,1565,-16,1,-12,59,39,73
8280,116,-129,-3859,1565,-7,2,-17,64,48,74
8290,117,-166,-3894,1555,-11,2,-19,64,48,74
8300,118,-132,-3883,1581,-9,3,-22,64,36,74
8310,119,-122,-3866,1590,-15,-1,-21,64,36,74
8320,120,-125,-3858,1558,-17,-4,-23,57,39,71
8330,121,-119,-3850,1559,-13,-2,-21,57,39,71
8340,122,-105,-3828,1559,-8,6,-18,64,38,68
8350,123,-146,-3848,1549,-10,7,-20,64,38,68
8360,124,-151,-3840,1553,-11,10,-16,59,41,73
8370,125,-177,-3860,1554,-16,14,-17,59,41,73
8380,126,-166,-3868,1565,-9,15,-17,61,47,71
8390,127,-118,-3855,1546,-7,16,-17,61,47,71
8400,128,-119,-3862,1562,-8,14,-19,61,45,67
8410,129,-137,-3857,1576,-12,7,-20,61,45,67
8420,130,-135,-3856,1583,-19,4,-18,64,44,70
8430,131,-142,-3847,1571,-18,5,-15,64,44,70
8440,132,-146,-3816,1521,-16,6,-11,63,45,73
8450,133,-139,-3863,1578,-18,15,-11,63,45,73
8460,134,-101,-3877,1587,-19,19,-7,63,43,63
8470,135,-116,-3846,1579,-21,18,-10,63,43,63
8480,136,-123,-3868,1547,-23,17,-11,63,45,71
8490,137,-135,-3835,1522,-17,14,-12,63,45,71
8500,138,-151,-3845,1589,-18,14,-18,61,41,69
8510,139,-163,-3865,1543,-16,9,-13,61,41,69
8520,140,-161,-3830,1552,-19,9,-17,63,39,75
8530,141,-142,-3880,1545,-21,8,-19,63,39,75
8540,142,-128,-3874,1595,-13,9,-16,64,40,72
8550,143,-142,-3854,1613,-15,7,-11,64,40,72
8560,144,-153,-3872,1606,-16,8,-10,64,42,72
8570,145,-129,-3827,1541,-17,4,-10,64,42,72
8580,146,-130,-3853,1588,-19,3,-10,60,46,70
8590,147,-109,-3842,1567,-14,1,-14,60,46,70
8600,148,-122,-3873,1554,-20,-3,-14,65,41,67
8610,149,-124,-3839,1546,-23,0,-12,65,41,67
8620,150,-122,-3851,1605,-25,3,-13,72,42,74
8630,151,-128,-3878,1542,-27,4,-12,72,42,74
8640,152,-122,-3875,1571,-21,10,-11,62,38,68
8650,153,-149,-3845,1556,-23,8,-12,62,38,68
8660,154,-129,-3860,1547,-21,9,-10,61,41,71
8670,155,-138,-3860,1545,-20,8,-13,61,41,71
8680,156,-115,-3870,1565,-16,9,-12,65,47,69
8690,157,-143,-3875,1511,-12,4,-15,65,47,69
8700,158,-136,-3840,1525,-16,5,-15,61,41,75
8710,159,-124,-3852,1541,-22,5,-11,61,41,75
8720,160,-128,-3864,1581,-21,4,-13,63,37,71
8730,161,-147,-3868,1570,-14,4,-13,63,37,71
8740,162,-111,-3872,1547,-12,8,-14,64,42,70
8750,163,-134,-3853,1549,-14,11,-14,64,42,70
8760,164,-129,-3868,1536,-18,10,-14,63,47,75
8770,165,-98,-3845,1572,-15,11,-14,63,47,75
8780,166,-124,-3850,1582,-15,12,-17,58,44,70
8790,167,-118,-3866,1554,-14,12,-17,58,44,70
8800,168,-163,-3866,1572,-19,11,-18,66,40,68
8810,169,-151,-3871,1566,-19,12,-16,66,40,68
8820,170,-138,-3856,1562,-25,13,-15,64,48,72
8830,171,-159,-3878,1591,-27,15,-14,64,48,72
8840,172,-141,-3844,1569,-19,16,-14,59,37,73
8850,173,-127,-3860,1558,-22,12,-11,59,37,73
8860,174,-133,-3866,1554,-25,10,-6,65,45,67
8870,175,-169,-3844,1573,-21,3,-12,65,45,67
8880,176,-142,-3890,1539,-19,-3,-10,65,43,67
8890,177,-144,-3857,1584,-13,-6,-14,65,43,67
8900,178,-172,-3847,1570,-16,-3,-15,62,40,66
8910,179,-161,-3892,1579,-14,1,-14,62,40,66
8920,180,-159,-3856,1556,-23,-2,-17,62,46,70
8930,181,-131,-3888,1549,-31,2,-12,62,46,70
8940,182,-115,-3843,1553,-25,2,-11,59,41,69
8950,183,-132,-3853,1549,-20,2,-10,59,41,69
8960,184,-117,-3899,1529,-17,0,-8,63,43,69
8970,185,-121,-3846,1557,-11,2,-8,63,43,69
8980,186,-112,-3870,1532,-11,4,-10,60,42,70
8990,187,-109,-3876,1552,-12,1,-9,60,42,70
9000,188,-136,-3826,1565,-20,0,-14,61,45,71
9010,189,-143,-3870,1569,-18,9,-13,61,45,71
9020,190,-127,-3845,1584,-21,17,-18,61,47,69
9030,191,-142,-3857,1562,-25,21,-18,61,47,69
9040,192,-126,-3842,1537,-28,24,-19,63,39,67
9050,193,-113,-3801,1527,-24,22,-23,63,39,67
9060,194,-139,-3868,1564,-22,22,-19,63,39,73
9070,195,-144,-3820,1582,-15,22,-21,63,39,73
9080,196,-171,-3870,1590,-19,17,-21,62,44,72
9090,197,-166,-3850,1579,-20,18,-17,62,44,72
9100,198,-162,-3856,1585,-19,13,-18,59,41,71
9110,199,-161,-3872,1576,-19,7,-17,59,41,71
9120,200,-139,-3874,1579,-15,5,-17,59,41,65
9130,201,-157,-3891,1567,-18,2,-20,59,41,65
9140,202,-162,-3880,1563,-15,2,-20,66,44,72
9150,203,-150,-3889,1581,-15,6,-16,66,44,72
9160,204,-126,-3887,1569,-20,13,-12,61,43,69
9170,205,-141,-3833,1529,-22,16,-12,61,43,69
9180,206,-154,-3836,1551,-17,11,-10,61,45,67
9190,207,-153,-3841,1537,-8,11,-9,61,45,67
9200,208,-126,-3816,1606,-12,6,-13,63,45,71
9210,209,-150,-3855,1524,-14,8,-10,63,45,71
9220,210,-166,-3835,1514,-18,5,-12,65,41,65
9230,211,-157,-3886,1556,-11,3,-16,65,41,65
9240,212,-161,-3895,1592,-13,-1,-15,63,39,69
9250,213,-153,-3882,1545,-12,0,-17,63,39,69
9260,214,-152,-3904,1586,-15,9,-14,67,41,73
9270,215,-111,-3852,1527,-18,16,-11,67,41,73
9280,216,-133,-3856,1540,-18,20,-13,62,44,68
9290,217,-104,-3858,1537,-17,21,-8,62,44,68
9300,218,-111,-3818,1513,-14,18,-15,67,47,73
9310,219,-142,-3860,1541,-15,14,-16,67,47,73
9320,220,-129,-3859,1556,-13,14,-20,57,41,69
9330,221,-171,-3851,1540,-15,16,-22,57,41,69
9340,222,-187,-3868,1535,-17,16,-19,62,48,70
9350,223,-144,-3861,1540,-18,13,-21,62,48,70
9360,224,-180,-3866,1544,-18,13,-23,57,47,71
9370,225,-177,-3877,1570,-14,14,-17,57,47,71
9380,226,-180,-3876,1544,-16,15,-17,66,42,68
9390,227,-159,-3865,1565,-19,13,-14,66,42,68
9400,228,-152,-3857,1540,-23,11,-10,66,42,66
9410,229,-152,-3877,1567,-17,7,-11,66,42,66
9420,230,-139,-3848,1562,-17,4,-6,61,43,69
9430,231,-149,-3849,1546,-19,3,-7,61,43,69
9440,232,-155,-3838,1564,-19,4,-13,63,45,69
9450,233,-126,-3842,1540,-26,6,-12,63,45,69
9460,234,-159,-3858,1533,-22,5,-13,58,40,72
9470,235,-135,-3851,1575,-24,5,-13,58,40,72
9480,236,-125,-3845,1560,-24,10,-12,65,45,73
9490,237,-159,-3862,1577,-25,9,-15,65,45,73
9500,238,-145,-3853,1575,-25,8,-12,61,43,71
9510,239,-152,-3866,1555,-23,4,-12,61,43,71
9520,240,-136,-3854,1606,-29,-2,-11,63,43,69
9530,241,-159,-3872,1576,-30,1,-8,63,43,69
9540,242,-132,-3843,1544,-29,7,-9,66,42,72
9550,243,-130,-3862,1507,-28,9,-10,66,42,72
9560,244,-115,-3871,1504,-25,3,-10,57,41,73
9570,245,-105,-3864,1517,-21,0,-11,57,41,73
9580,246,-138,-3890,1531,-14,4,-15,59,43,69
9590,247,-135,-3905,1568,-15,6,-14,59,43,69
9600,248,-133,-3888,1584,-8,9,-16,63,41,69
9610,249,-128,-3909,1545,-8,10,-21,63,41,69
9620,250,-126,-3854,1565,-11,7,-20,60,40,70
9630,251,-153,-3908,1565,-8,4,-20,60,40,70
9640,252,-167,-3864,1540,-5,5,-18,60,44,68
9650,253,-173,-3805,1563,-6,4,-16,60,44,68
9660,254,-188,-3845,1550,-6,-2,-15,64,44,72
9670,255,-167,-3821,1529,-7,-11,-14,64,44,72
9680,0,-173,-3846,1565,-8,-11,-11,65,41,69
9690,1,-129,-3873,1534,-8,-11,-12,65,41,69
9700,2,-110,-3837,1539,-10,-12,-11,60,42,68
9710,3,-138,-3907,1518,-13,-11,-12,60,42,68
9720,4,-132,-3850,1540,-9,-5,-7,65,43,71
9730,5,-106,-3861,1525,-9,0,-11,65,43,71
9740,6,-122,-3856,1554,-16,2,-15,59,41,71
9750,7,-99,-3856,1544,-15,7,-14,59,41,71
9760,8,-146,-3881,1569,-19,2,-13,59,39,71
9770,9,-182,-3871,1566,-18,1,-6,59,39,71
9780,10,-170,-3868,1568,-16,12,-8,65,41,69
9790,11,-155,-3848,1496,-22,18,-10,65,41,69
9800,12,-111,-3886,1529,-22,15,-9,68,40,72
9810,13,-80,-3881,1543,-10,2,-13,68,40,72
9820,14,-107,-3897,1537,6,-8,-19,61,41,71
9830,15,-111,-3909,1566,-6,-6,-23,61,41,71
9840,16,-170,-3857,1566,-26,13,-23,60,40,64
9850,17,-140,-3890,1536,-22,22,-24,60,40,64
9860,18,-179,-3866,1567,-15,26,-20,62,40,68
9870,19,-145,-3854,1573,-13,20,-21,62,40,68
9880,20,-149,-3862,1607,-13,18,-15,65,43,71
9890,21,-143,-3822,1567,-14,15,-13,65,43,71
9900,22,-149,-3837,1566,-8,5,-16,61,43,71
9910,23,-147,-3851,1548,-14,-5,-22,61,43,71
9920,24,-159,-3845,1573,-19,-7,-21,62,42,74
9930,25,-123,-3858,1542,-20,-6,-22,62,42,74
9940,26,-102,-3862,1569,-27,2,-18,64,42,66
9950,27,-140,-3896,1545,-26,6,-12,64,42,66
9960,28,-95,-3868,1580,-20,17,-12,61,43,67
9970,29,-157,-3867,1485,-21,24,-10,61,43,67
9980,30,-121,-3879,1533,-21,19,-10,67,43,69
9990,31,-128,-3844,1536,-15,12,-13,67,43,69
10000,32,-133,-3879,1581,-6,8,-14,67,45,71
10010,33,-140,-3858,1582,1,6,-22,67,45,71
10020,34,-135,-3862,1600,-1,7,-23,63,43,65
10030,35,-121,-3877,1581,-5,9,-26,63,43,65
10040,36,-112,-3843,1529,-15,9,-25,64,44,64
10050,37,-146,-3864,1533,-16,15,-24,64,44,64
10060,38,-112,-3838,1558,-21,15,-26,60,46,70
10070,39,-131,-3851,1580,-20,16,-20,60,46,70
10080,40,-164,-3849,1549,-21,18,-14,63,43,67
10090,41,-162,-3848,1512,-19,19,-16,63,43,67
10100,42,-160,-3850,1543,-16,15,-16,63,41,75
10110,43,-148,-3860,1529,-14,10,-14,63,41,75
10120,44,-150,-3877,1579,-13,5,-12,61,45,71
10130,45,-125,-3879,1544,-7,4,-12,61,45,71
10140,46,-111,-3901,1569,-4,5,-18,66,42,68
10150,47,-132,-3894,1557,-8,11,-17,66,42,68
10160,48,-127,-3893,1541,-16,13,-19,64,38,72
10170,49,-137,-3846,1550,-20,15,-17,64,38,72
10180,50,-142,-3860,1550,-17,17,-17,61,45,73
10190,51,-128,-3824,1550,-16,12,-20,61,45,73
10200,52,-141,-3859,1558,-15,5,-19,63,41,67
10210,53,-126,-3839,1568,-13,1,-16,63,41,67
10220,54,-162,-3846,1551,-12,2,-16,62,42,74
10230,55,-159,-3854,1558,-17,-1,-13,62,42,74
10240,56,-151,-3865,1523,-15,-4,-16,62,44,72
10250,57,-160,-3885,1577,-15,-2,-16,62,44,72
10260,58,-143,-3871,1554,-13,4,-15,64,44,72
10270,59,-127,-3887,1567,-12,9,-15,64,44,72
10280,60,-145,-3855,1575,-14,10,-15,64,44,66
10290,61,-123,-3858,1544,-16,10,-13,64,44,66
10300,62,-125,-3858,1570,-16,9,-12,61,41,67
10310,63,-107,-3879,1502,-6,11,-13,61,41,67
10320,64,-140,-3840,1561,-8,12,-13,62,40,74
10330,65,-139,-3858,1556,-9,10,-14,62,40,74
10340,66,-146,-3865,1576,-10,7,-21,61,41,69
10350,67,-113,-3861,1531,-7,1,-18,61,41,69
10360,68,-154,-3824,1513,-9,1,-19,63,43,69
10370,69,-156,-3840,1548,-13,1,-16,63,43,69
10380,70,-119,-3899,1538,-10,12,-18,55,43,71
10390,71,-113,-3853,1558,-16,17,-17,55,43,71
10400,72,-101,-3894,1555,-12,18,-15,60,40,68
10410,73,-109,-3900,1526,-15,11,-13,60,40,68
10420,74,-131,-3860,1566,-13,10,-13,64,42,68
10430,75,-150,-3885,1540,-11,7,-14,64,42,68
10440,76,-146,-3858,1565,-12,6,-20,58,38,68
10450,77,-158,-3869,1590,-11,10,-19,58,38,68
10460,78,-126,-3840,1547,-10,12,-17,59,45,69
10470,79,-134,-3856,1537,-11,9,-20,59,45,69
10480,80,-132,-3861,1577,-8,7,-19,58,46,74
10490,81,-98,-3843,1550,-17,8,-17,58,46,74
10500,82,-135,-3843,1554,-15,10,-16,64,40,72
10510,83,-131,-3858,1565,-22,10,-14,64,40,72
10520,84,-121,-3843,1540,-23,10,-15,64,46,70
10530,85,-122,-3868,1536,-28,6,-14,64,46,70
10540,86,-146,-3866,1550,-23,5,-13,62,44,72
10550,87,-156,-3893,1590,-19,7,-15,62,44,72
10560,88,-135,-3886,1559,-15,9,-17,64,48,70
10570,89,-149,-3856,1558,-18,12,-19,64,48,70
10580,90,-154,-3879,1557,-16,13,-19,59,41,73
10590,91,-139,-3865,1573,-21,8,-14,59,41,73
10600,92,-115,-3877,1575,-17,9,-15,65,43,69
10610,93,-129,-3860,1585,-17,7,-12,65,43,69
10620,94,-130,-3850,1587,-20,5,-10,64,40,70
10630,95,-168,-3859,1552,-23,7,-11,64,40,70
10640,96,-154,-3826,1583,-29,7,-10,64,46,72
10650,97,-147,-3845,1553,-30,7,-9,64,46,72
10660,98,-138,-3806,1550,-30,11,-12,61,43,71
10670,99,-147,-3848,1563,-20,13,-15,61,43,71
10680,100,-108,-3886,1577,-15,7,-16,65,43,71
10690,101,-112,-3876,1582,-14,6,-16,65,43,71
10700,102,-125,-3885,1581,-19,3,-14,65,43,71
10710,103,-133,-3891,1567,-13,-2,-16,65,43,71
10720,104,-138,-3871,1574,-9,-4,-15,59,45,67
10730,105,-168,-3885,1541,-9,-5,-15,59,45,67
10740,106,-155,-3874,1544,0,-7,-13,64,40,68
10750,107,-171,-3877,1534,3,-12,-19,64,40,68
10760,108,-156,-3858,1559,-7,-8,-20,61,45,67
10770,109,-139,-3848,1548,-5,-4,-20,61,45,67
10780,110,-118,-3846,1573,0,-1,-17,59,41,69
10790,111,-108,-3867,1531,1,6,-15,59,41,69
10800,112,-109,-3851,1569,-2,7,-18,60,42,72
10810,113,-107,-3869,1542,-4,10,-22,60,42,72
10820,114,-145,-3852,1576,-10,11,-19,63,47,73
10830,115,-153,-3880,1505,-11,12,-22,63,47,73
10840,116,-144,-3834,1571,-14,17,-17,61,45,69
10850,117,-135,-3848,1557,-15,27,-20,61,45,69
10860,118,-143,-3872,1592,-22,31,-19,63,41,73
10870,119,-125,-3847,1563,-27,28,-15,63,41,73
10880,120,-131,-3879,1527,-32,25,-16,64,42,70
10890,121,-105,-3832,1544,-24,11,-15,64,42,70
10900,122,-140,-3881,1576,-14,4,-15,61,43,71
10910,123,-140,-3903,1559,-19,3,-18,61,43,71
10920,124,-155,-3877,1546,-15,8,-19,61,45,71
10930,125,-172,-3897,1567,-25,13,-20,61,45,71
10940,126,-153,-3859,1524,-32,19,-19,64,40,74
10950,127,-161,-3845,1550,-30,23,-17,64,40,74
10960,128,-88,-3859,1565,-29,25,-17,60,42,66
10970,129,-103,-3824,1544,-29,23,-12,60,42,66
10980,130,-150,-3867,1544,-30,18,-12,62,38,70
10990,131,-113,-3827,1548,-24,10,-11,62,38,70
11000,132,-112,-3855,1563,-22,6,-13,63,41,67
11010,133,-176,-3896,1577,-16,-1,-12,63,41,67
11020,134,-147,-3868,1586,-11,2,-14,64,46,72
11030,135,-168,-3924,1578,-8,3,-11,64,46,72
11040,136,-146,-3899,1527,-10,4,-14,59,43,65
11050,137,-158,-3901,1533,-13,-3,-14,59,43,65
11060,138,-135,-3878,1541,-21,-2,-14,65,41,73
11070,139,-142,-3841,1545,-13,-4,-14,65,41,73
11080,140,-141,-3868,1554,-16,-7,-16,63,45,69
11090,141,-131,-3808,1523,-16,-8,-12,63,45,69
11100,142,-145,-3825,1541,-19,-6,-12,62,42,70
11110,143,-148,-3856,1546,-13,-4,-10,62,42,70
11120,144,-110,-3860,1535,-13,0,-12,63,49,69
11130,145,-112,-3858,1586,-15,10,-12,63,49,69
11140,146,-134,-3845,1534,-18,15,-13,66,40,70
11150,147,-149,-3850,1536,-20,10,-18,66,40,70
11160,148,-169,-3904,1518,-22,4,-17,64,44,72
11170,149,-140,-3866,1559,-18,0,-16,64,44,72
11180,150,-156,-3912,1558,-20,-4,-14,59,43,73
11190,151,-163,-3877,1512,-11,-3,-16,59,43,73
11200,152,-152,-3881,1552,-8,-1,-14,60,44,74
11210,153,-134,-3875,1544,-12,3,-17,60,44,74
11220,154,-105,-3836,1523,-10,9,-16,59,39,71
11230,155,-135,-3851,1509,-7,11,-17,59,39,71
11240,156,-92,-3824,1560,-16,14,-17,65,43,69
11250,157,-109,-3832,1551,-16,12,-16,65,43,69
11260,158,-120,-3872,1558,-13,8,-18,64,42,70
11270,159,-124,-3861,1561,-14,2,-21,64,42,70
11280,160,-172,-3869,1550,-12,5,-21,63,41,71
11290,161,-137,-3855,1581,-11,10,-18,63,41,71
11300,162,-166,-3848,1592,-15,12,-19,62,42,72
11310,163,-157,-3863,1579,-18,8,-17,62,42,72
11320,164,-140,-3845,1548,-22,6,-22,59,47,69
11330,165,-179,-3894,1557,-26,9,-19,59,47,69
11340,166,-148,-3856,1548,-26,15,-18,60,46,70
11350,167,-141,-3855,1532,-29,24,-13,60,46,70
11360,168,-119,-3864,1523,-30,24,-13,59,41,73
11370,169,-82,-3837,1520,-25,18,-13,59,41,73
11380,170,-110,-3855,1546,-18,14,-13,62,42,70
11390,171,-109,-3848,1536,-10,10,-14,62,42,70
11400,172,-146,-3883,1536,-13,12,-13,56,38,72
11410,173,-141,-3889,1531,-16,8,-12,56,38,72
11420,174,-147,-3875,1543,-21,10,-12,61,41,69
11430,175,-164,-3924,1573,-16,9,-16,61,41,69
11440,176,-153,-3913,1590,-19,2,-19,64,46,72
11450,177,-148,-3870,1553,-11,0,-20,64,46,72
11460,178,-149,-3860,1580,-15,1,-17,57,47,71
11470,179,-126,-3852,1583,-6,3,-18,57,47,71
11480,180,-118,-3861,1561,-7,8,-14,63,41,73
11490,181,-122,-3845,1550,-3,8,-11,63,41,73
11500,182,-146,-3818,1567,-9,4,-11,66,44,72
11510,183,-130,-3858,1545,-9,0,-13,66,44,72
11520,184,-160,-3834,1596,-9,1,-12,61,45,71
11530,185,-147,-3865,1502,-13,4,-12,61,45,71
11540,186,-136,-3878,1579,-7,6,-14,59,47,67
11550,187,-109,-3862,1538,-14,5,-12,59,47,67
11560,188,-123,-3891,1525,-11,6,-13,61,45,67
11570,189,-130,-3874,1521,-9,5,-15,61,45,67
11580,190,-126,-3876,1561,-13,5,-16,65,43,71
11590,191,-115,-3874,1529,-1,4,-19,65,43,71
11600,192,-144,-3854,1575,-7,5,-18,60,42,72
11610,193,-146,-3851,1538,-8,9,-15,60,42,72
11620,194,-149,-3828,1564,-6,9,-16,60,42,68
11630,195,-147,-3870,1552,-2,15,-14,60,42,68
11640,196,-107,-3842,1562,-1,14,-13,64,44,72
11650,197,-121,-3852,1530,2,11,-12,64,44,72
11660,198,-132,-3878,1578,-4,8,-14,63,43,73
11670,199,-127,-3850,1553,-7,7,-17,63,43,73
11680,200,-146,-3905,1561,-9,8,-14,58,40,68
11690,201,-136,-3881,1563,-11,6,-19,58,40,68
11700,202,-154,-3864,1555,-6,11,-16,62,40,72
11710,203,-141,-3882,1552,-5,15,-20,62,40,72
11720,204,-130,-3846,1565,-7,19,-19,60,42,70
11730,205,-130,-3874,1534,-16,19,-20,60,42,70
11740,206,-109,-3831,1552,-12,20,-21,70,44,68
11750,207,-95,-3858,1534,-5,19,-18,70,44,68
11760,208,-143,-3892,1564,-6,23,-17,64,42,72
11770,209,-140,-3855,1522,-5,21,-12,64,42,72
11780,210,-160,-3896,1550,-10,21,-12,62,44,66
11790,211,-148,-3886,1584,-10,15,-17,62,44,66
11800,212,-157,-3880,1604,-12,13,-19,64,42,66
11810,213,-150,-3897,1545,-13,20,-16,64,42,66
11820,214,-127,-3845,1517,-18,17,-20,59,43,71
11830,215,-119,-3845,1542,-20,14,-21,59,43,71
11840,216,-82,-3846,1582,-13,7,-20,61,43,69
11850,217,-116,-3811,1562,-14,6,-18,61,43,69
11860,218,-107,-3851,1537,-19,10,-20,61,43,73
11870,219,-137,-3850,1555,-15,16,-17,61,43,73
11880,220,-146,-3886,1594,-13,20,-17,61,39,65
11890,221,-163,-3882,1592,-11,15,-16,61,39,65
11900,222,-149,-3865,1563,-11,12,-16,58,42,70
11910,223,-163,-3907,1556,-13,13,-13,58,42,70
11920,224,-142,-3843,1589,-21,19,-12,56,44,68
11930,225,-140,-3832,1538,-14,18,-12,56,44,68
11940,226,-125,-3859,1555,-6,16,-12,58,46,68
11950,227,-134,-3848,1549,-5,12,-14,58,46,68
11960,228,-120,-3874,1609,-4,10,-12,57,43,71
11970,229,-149,-3815,1597,-8,17,-19,57,43,71
11980,230,-141,-3864,1594,-16,22,-23,64,46,70
11990,231,-95,-3849,1535,-11,19,-24,64,46,70
12000,232,-129,-3852,1606,-9,13,-27,61,43,73
12010,233,-131,-3869,1541,-9,6,-28,61,43,73
12020,234,-148,-3840,1567,-6,11,-23,63,43,69
12030,235,-128,-3849,1574,-11,19,-23,63,43,69
12040,236,-161,-3865,1573,-17,22,-19,66,40,72
12050,237,-117,-3840,1539,-15,23,-21,66,40,72
12060,238,-135,-3871,1601,-15,16,-18,63,41,75
12070,239,-127,-3845,1560,-14,12,-19,63,41,75
12080,240,-146,-3884,1579,-9,17,-20,61,43,69
12090,241,-161,-3883,1543,-7,13,-23,61,43,69
12100,242,-140,-3876,1575,-15,11,-20,64,44,72
12110,243,-135,-3861,1599,-20,9,-20,64,44,72
12120,244,-107,-3862,1588,-12,12,-18,62,44,72
12130,245,-128,-3841,1583,-12,14,-16,62,44,72
12140,246,-112,-3852,1569,-17,11,-19,59,45,67
12150,247,-112,-3815,1530,-17,4,-16,59,45,67
12160,248,-126,-3849,1588,-16,1,-18,60,42,70
12170,249,-130,-3850,1520,-16,1,-21,60,42,70
12180,250,-159,-3847,1616,-18,2,-20,66,40,72
12190,251,-154,-3881,1550,-19,9,-18,66,40,72
12200,252,-142,-3852,1535,-22,13,-14,59,45,69
12210,253,-141,-3875,1623,-23,11,-13,59,45,69
12220,254,-133,-3873,1566,-18,12,-12,63,41,69
12230,255,-126,-3877,1594,-16,11,-12,63,41,69
12240,0,-109,-3879,1555,-13,9,-14,66,38,66
12250,1,-130,-3852,1559,-15,10,-13,66,38,66
12260,2,-159,-3882,1580,-18,2,-19,61,45,71
12270,3,-124,-3853,1597,-13,-1,-16,61,45,71
12280,4,-122,-3876,1575,-13,3,-21,63,47,73
12290,5,-122,-3846,1560,-12,9,-20,63,47,73
12300,6,-130,-3849,1561,-18,17,-18,62,38,64
12310,7,-116,-3891,1566,-19,19,-18,62,38,64
12320,8,-140,-3845,1583,-11,14,-16,59,43,71
12330,9,-121,-3885,1547,-13,11,-19,59,43,71
12340,10,-111,-3869,1548,-15,14,-20,62,42,70
12350,11,-125,-3823,1528,-19,10,-16,62,42,70
12360,12,-134,-3871,1579,-19,7,-17,64,40,68
12370,13,-118,-3857,1568,-14,10,-17,64,40,68
12380,14,-149,-3868,1582,-15,10,-16,62,46,74
12390,15,-135,-3869,1574,-22,14,-18,62,46,74
12400,16,-104,-3852,1536,-25,10,-19,56,44,74
12410,17,-150,-3877,1570,-22,7,-18,56,44,74
12420,18,-126,-3832,1580,-22,7,-18,59,43,71
12430,19,-127,-3858,1557,-18,8,-17,59,43,71
12440,20,-146,-3876,1550,-23,9,-20,65,43,67
12450,21,-132,-3829,1558,-26,17,-14,65,43,67
12460,22,-134,-3851,1556,-30,18,-15,63,45,67
12470,23,-121,-3859,1559,-31,16,-15,63,45,67
12480,24,-143,-3847,1569,-25,14,-12,62,44,70
12490,25,-146,-3855,1574,-26,20,-12,62,44,70
12500,26,-124,-3832,1574,-29,17,-12,61,41,67
12510,27,-111,-3887,1557,-29,9,-13,61,41,67
12520,28,-107,-3884,1584,-18,-6,-19,64,42,68
12530,29,-121,-3874,1525,-3,-15,-19,64,42,68
12540,30,-132,-3886,1573,-2,-9,-19,61,45,67
12550,31,-113,-3840,1576,-9,3,-22,61,45,67
12560,32,-128,-3848,1558,-18,12,-25,61,39,75
12570,33,-101,-3827,1531,-12,11,-22,61,39,75
12580,34,-80,-3820,1540,-18,4,-22,63,45,65
12590,35,-116,-3834,1582,-22,-2,-18,63,45,65
12600,36,-112,-3828,1543,-19,1,-19,61,41,69
12610,37,-165,-3865,1543,-10,-3,-15,61,41,69
12620,38,-159,-3855,1595,-5,-5,-16,62,42,70
12630,39,-164,-3865,1586,-9,-6,-13,62,42,70
12640,40,-163,-3870,1598,-20,-1,-16,63,41,71
12650,41,-158,-3870,1591,-28,2,-12,63,41,71
12660,42,-125,-3856,1574,-35,14,-13,61,41,73
12670,43,-98,-3862,1547,-31,16,-9,61,41,73
12680,44,-107,-3844,1571,-33,16,-8,62,40,72
12690,45,-117,-3858,1532,-35,12,-11,62,40,72
12700,46,-98,-3840,1569,-30,4,-15,58,48,72
12710,47,-127,-3877,1575,-23,5,-11,58,48,72
12720,48,-141,-3876,1575,-21,2,-17,65,47,67
12730,49,-139,-3882,1589,-23,9,-15,65,47,67
12740,50,-137,-3896,1572,-21,17,-15,62,46,72
12750,51,-133,-3903,1573,-19,23,-19,62,46,72
12760,52,-91,-3883,1548,-19,21,-23,60,42,70
12770,53,-100,-3866,1570,-12,15,-20,60,42,70
12780,54,-93,-3854,1556,-8,10,-19,61,41,69
12790,55,-82,-3817,1561,-19,11,-21,61,41,69
12800,56,-132,-3838,1522,-23,14,-15,59,45,77
12810,57,-128,-3805,1571,-22,16,-15,59,45,77
12820,58,-157,-3855,1615,-20,18,-20,60,44,68
12830,59,-151,-3856,1539,-18,14,-20,60,44,68
12840,60,-126,-3838,1545,-18,12,-19,67,47,67
12850,61,-140,-3892,1547,-21,14,-18,67,47,67
12860,62,-140,-3876,1564,-19,16,-20,60,38,74
12870,63,-165,-3896,1535,-19,11,-14,60,38,74
12880,64,-140,-3900,1519,-16,9,-14,61,47,69
12890,65,-117,-3846,1544,-18,8,-14,61,47,69
12900,66,-170,-3840,1522,-15,17,-13,58,42,72
12910,67,-115,-3827,1545,-19,18,-9,58,42,72
12920,68,-140,-3860,1545,-17,13,-10,63,43,73
12930,69,-127,-3867,1565,-16,7,-11,63,43,73
12940,70,-138,-3826,1572,-16,5,-9,60,46,70
12950,71,-129,-3878,1519,-20,5,-11,60,46,70
12960,72,-102,-3845,1541,-16,6,-14,64,46,70
12970,73,-97,-3864,1577,-16,10,-13,64,46,70
12980,74,-111,-3854,1580,-14,6,-14,60,46,70
12990,75,-107,-3859,1554,-14,8,-13,60,46,70
13000,76,-131,-3874,1554,-18,10,-12,63,45,67
13010,77,-112,-3870,1534,-18,19,-11,63,45,67
13020,78,-135,-3856,1521,-17,20,-13,63,47,71
13030,79,-150,-3857,1533,-19,14,-12,63,47,71
13040,80,-140,-3840,1540,-24,6,-13,62,44,72
13050,81,-146,-3885,1529,-21,4,-17,62,44,72
13060,82,-96,-3851,1558,-23,0,-11,60,42,70
13070,83,-121,-3913,1518,-18,2,-18,60,42,70
13080,84,-128,-3869,1542,-18,4,-17,60,42,68
13090,85,-125,-3882,1537,-14,9,-17,60,42,68
13100,86,-145,-3877,1560,-16,11,-14,63,45,69
13110,87,-126,-3851,1523,-16,11,-15,63,45,69
13120,88,-127,-3847,1535,-18,7,-18,62,44,66
13130,89,-128,-3860,1540,-16,7,-11,62,44,66
13140,90,-145,-3872,1568,-19,5,-15,61,43,71
13150,91,-116,-3883,1553,-16,1,-13,61,43,71
13160,92,-122,-3903,1579,-19,8,-14,61,43,71
13170,93,-126,-3855,1527,-19,8,-14,61,43,71
13180,94,-119,-3840,1561,-14,6,-14,61,41,69
13190,95,-132,-3838,1564,-17,7,-11,61,41,69
13200,96,-119,-3881,1584,-15,7,-15,57,35,67
13210,97,-121,-3849,1536,-17,9,-15,57,35,67
13220,98,-147,-3856,1583,-19,6,-12,58,44,72
13230,99,-122,-3879,1519,-17,-2,-16,58,44,72
13240,100,-126,-3859,1540,-17,-4,-15,61,45,71
13250,101,-141,-3877,1554,-13,-4,-16,61,45,71
13260,102,-136,-3850,1577,-19,6,-14,62,44,72
13270,103,-128,-3851,1551,-19,9,-11,62,44,72
13280,104,-86,-3886,1575,-14,12,-11,65,43,73
13290,105,-122,-3859,1555,-18,10,-10,65,43,73
13300,106,-108,-3865,1571,-15,7,-9,65,41,71
13310,107,-110,-3841,1525,-15,7,-9,65,41,71
13320,108,-137,-3838,1587,-20,8,-13,62,44,76
13330,109,-145,-3874,1532,-18,7,-10,62,44,76
13340,110,-156,-3853,1562,-20,8,-14,64,44,68
13350,111,-130,-3882,1577,-22,5,-14,64,44,68
13360,112,-135,-3862,1566,-21,6,-17,65,39,69
13370,113,-125,-3859,1520,-18,8,-18,65,39,69
13380,114,-125,-3893,1546,-20,7,-16,61,37,73
13390,115,-121,-3847,1531,-17,6,-18,61,37,73
13400,116,-153,-3861,1582,-11,11,-11,60,38,72
13410,117,-120,-3862,1584,-12,13,-10,60,38,72
13420,118,-117,-3877,1547,-10,13,-9,63,47,67
13430,119,-119,-3863,1536,-15,16,-9,63,47,67
13440,120,-111,-3824,1560,-18,9,-9,63,43,71
13450,121,-145,-3869,1562,-19,2,-13,63,43,71
13460,122,-129,-3860,1584,-15,-1,-13,60,40,72
13470,123,-144,-3848,1540,-11,0,-15,60,40,72
13480,124,-152,-3894,1551,-20,2,-12,66,44,74
13490,125,-123,-3860,1548,-26,4,-12,66,44,74
13500,126,-144,-3873,1557,-23,6,-14,58,44,70
13510,127,-117,-3862,1562,-19,8,-11,58,44,70
13520,128,-130,-3849,1566,-21,3,-11,63,39,73
13530,129,-127,-3887,1526,-16,3,-11,63,39,73
13540,130,-108,-3873,1513,-15,2,-11,63,47,73
13550,131,-131,-3855,1552,-13,3,-12,63,47,73
13560,132,-113,-3857,1541,-16,3,-13,64,38,70
13570,133,-122,-3851,1517,-20,5,-13,64,38,70
13580,134,-137,-3882,1542,-15,4,-10,63,45,69
13590,135,-118,-3851,1542,-17,9,-11,63,45,69
13600,136,-157,-3866,1548,-17,8,-9,62,48,74
13610,137,-106,-3854,1558,-25,10,-8,62,48,74
13620,138,-106,-3856,1576,-25,11,-8,62,44,68
13630,139,-153,-3858,1583,-23,11,-10,62,44,68
13640,140,-125,-3837,1543,-24,9,-10,61,41,75
13650,141,-161,-3847,1541,-20,8,-9,61,41,75
13660,142,-141,-3845,1580,-17,8,-14,57,41,71
13670,143,-129,-3866,1580,-14,9,-15,57,41,71
13680,144,-147,-3870,1540,-14,6,-16,61,45,75
13690,145,-119,-3872,1568,-20,3,-17,61,45,75
13700,146,-118,-3875,1523,-19,10,-16,58,46,74
13710,147,-135,-3860,1555,-20,8,-16,58,46,74
13720,148,-136,-3853,1571,-17,8,-11,62,44,70
13730,149,-128,-3880,1540,-26,8,-12,62,44,70
13740,150,-164,-3828,1525,-19,11,-11,64,44,66
13750,151,-165,-3862,1562,-22,7,-12,64,44,66
13760,152,-121,-3865,1559,-13,5,-9,59,43,65
13770,153,-132,-3855,1569,-14,0,-9,59,43,65
13780,154,-121,-3900,1579,-18,-3,-8,64,42,70
13790,155,-142,-3857,1555,-21,-5,-11,64,42,70
13800,156,-160,-3868,1569,-22,-1,-15,63,41,67
13810,157,-139,-3879,1528,-24,6,-12,63,41,67
13820,158,-133,-3867,1547,-28,5,-11,63,47,67
13830,159,-132,-3863,1555,-24,7,-17,63,47,67
13840,160,-101,-3868,1538,-25,6,-16,58,42,76
13850,161,-128,-3876,1551,-16,8,-12,58,42,76
13860,162,-150,-3863,1547,-19,5,-10,63,45,69
13870,163,-145,-3853,1538,-22,5,-9,63,45,69
13880,164,-140,-3883,1547,-24,6,-8,63,49,73
13890,165,-101,-3851,1522,-15,9,-10,63,49,73
13900,166,-148,-3900,1551,-21,3,-9,60,42,64
13910,167,-113,-3866,1562,-17,8,-14,60,42,64
13920,168,-114,-3848,1536,-26,9,-16,63,41,73
13930,169,-110,-3845,1522,-26,9,-16,63,41,73
13940,170,-147,-3842,1542,-28,11,-18,58,44,74
13950,171,-151,-3851,1551,-23,14,-14,58,44,74
13960,172,-128,-3875,1543,-23,12,-12,63,39,67
13970,173,-125,-3854,1538,-23,12,-13,63,39,67
13980,174,-168,-3882,1526,-26,8,-11,65,41,69
13990,175,-106,-3849,1511,-26,5,-12,65,41,69
14000,176,-122,-3872,1533,-19,5,-12,61,41,67
14010,177,-126,-3904,1553,-17,6,-14,61,41,67
14020,178,-109,-3870,1578,-23,11,-15,62,50,74
14030,179,-164,-3909,1533,-24,17,-18,62,50,74
14040,180,-125,-3870,1534,-23,15,-19,59,39,71
14050,181,-130,-3862,1566,-22,16,-15,59,39,71
14060,182,-118,-3877,1536,-22,15,-15,64,46,72
14070,183,-99,-3863,1537,-18,14,-13,64,46,72
14080,184,-150,-3868,1498,-21,7,-16,60,42,68
14090,185,-167,-3864,1524,-16,4,-12,60,42,68
14100,186,-153,-3878,1554,-17,5,-17,64,48,68
14110,187,-170,-3865,1572,-16,6,-17,64,48,68
14120,188,-139,-3869,1562,-22,3,-17,58,42,70
14130,189,-160,-3876,1532,-19,7,-18,58,42,70
14140,190,-117,-3865,1522,-24,7,-16,64,46,66
14150,191,-108,-3848,1518,-22,12,-14,64,46,66
14160,192,-85,-3881,1557,-26,18,-12,63,43,67
14170,193,-133,-3882,1500,-22,16,-8,63,43,67
14180,194,-125,-3917,1513,-17,14,-12,63,47,69
14190,195,-132,-3846,1510,-19,13,-11,63,47,69
14200,196,-161,-3861,1526,-20,6,-13,56,38,78
14210,197,-134,-3886,1498,-18,3,-15,56,38,78
14220,198,-133,-3850,1528,-15,1,-19,65,39,73
14230,199,-144,-3879,1527,-10,-3,-21,65,39,73
14240,200,-152,-3876,1554,-8,-3,-20,62,48,72
14250,201,-131,-3872,1507,-7,0,-21,62,48,72
14260,202,-139,-3833,1520,-13,9,-20,64,44,72
14270,203,-123,-3875,1547,-17,14,-17,64,44,72
14280,204,-113,-3856,1504,-24,12,-12,61,39,71
14290,205,-101,-3854,1526,-14,9,-17,61,39,71
14300,206,-113,-3870,1523,-5,7,-12,65,41,67
14310,207,-124,-3863,1534,-7,8,-13,65,41,67
14320,208,-128,-3902,1529,-15,6,-16,61,43,71
14330,209,-128,-3864,1533,-13,7,-16,61,43,71
14340,210,-153,-3856,1531,-5,14,-17,61,45,73
14350,211,-121,-3880,1509,-12,19,-18,61,45,73
14360,212,-121,-3857,1539,-20,17,-22,60,44,68
14370,213,-135,-3872,1505,-16,15,-21,60,44,68
14380,214,-119,-3835,1542,-14,15,-24,63,37,67
14390,215,-135,-3886,1518,-17,20,-22,63,37,67
14400,216,-118,-3849,1545,-17,24,-18,62,46,70
14410,217,-142,-3829,1537,-25,22,-20,62,46,70
14420,218,-143,-3875,1534,-20,23,-17,64,42,76
14430,219,-109,-3876,1517,-18,18,-19,64,42,76
14440,220,-160,-3864,1577,-17,17,-20,62,48,68
14450,221,-156,-3867,1526,-19,18,-19,62,48,68
14460,222,-180,-3860,1555,-22,22,-20,63,39,71
14470,223,-167,-3883,1551,-22,23,-19,63,39,71
14480,224,-141,-3863,1565,-21,15,-19,62,38,70
14490,225,-131,-3866,1539,-25,13,-17,62,38,70
14500,226,-135,-3866,1561,-28,12,-15,59,43,75
14510,227,-135,-3883,1559,-22,10,-16,59,43,75
14520,228,-148,-3879,1547,-18,1,-16,66,44,68
14530,229,-159,-3869,1525,-9,-3,-12,66,44,68
14540,230,-168,-3873,1579,-12,-2,-12,64,42,72
14550,231,-149,-3881,1580,-13,-2,-9,64,42,72
14560,232,-168,-3869,1545,-18,6,-9,65,43,75
14570,233,-157,-3868,1544,-16,10,-5,65,43,75
14580,234,-98,-3856,1564,-22,10,-8,66,44,74
14590,235,-95,-3872,1508,-19,10,-8,66,44,74
14600,236,-78,-3885,1548,-16,10,-9,61,45,67
14610,237,-109,-3830,1493,-9,8,-15,61,45,67
14620,238,-136,-3892,1509,-8,5,-18,65,45,71
14630,239,-137,-3849,1516,-2,8,-22,65,45,71
14640,240,-139,-3865,1571,-12,6,-21,62,46,68
14650,241,-157,-3845,1536,-18,11,-22,62,46,68
14660,242,-142,-3855,1546,-19,12,-27,64,38,68
14670,243,-144,-3864,1527,-20,12,-23,64,38,68
14680,244,-161,-3849,1531,-16,8,-18,67,41,71
14690,245,-140,-3861,1536,-14,8,-17,67,41,71
14700,246,-130,-3846,1511,-19,8,-14,64,48,70
14710,247,-157,-3862,1545,-15,7,-13,64,48,70
14720,248,-148,-3913,1550,-13,5,-12,60,46,68
14730,249,-149,-3906,1535,-10,5,-8,60,46,68
14740,250,-145,-3912,1539,-13,7,-5,62,42,72
14750,251,-130,-3873,1552,-16,9,-11,62,42,72
14760,252,-125,-3845,1557,-10,11,-9,66,38,64
14770,253,-137,-3863,1572,-9,8,-12,66,38,64
14780,254,-128,-3861,1528,-13,5,-15,62,42,72
14790,255,-142,-3867,1522,-14,7,-17,62,42,72
14800,0,-123,-3873,1531,-16,12,-18,64,42,74
14810,1,-122,-3832,1524,-7,15,-19,64,42,74
14820,2,-131,-3874,1545,-15,15,-18,59,43,73
14830,3,-129,-3871,1494,-16,12,-15,59,43,73
14840,4,-130,-3864,1555,-17,12,-16,62,40,70
14850,5,-114,-3882,1517,-15,12,-18,62,40,70
14860,6,-108,-3852,1511,-9,14,-17,63,39,65
14870,7,-156,-3866,1564,-11,10,-16,63,39,65
14880,8,-132,-3887,1538,-15,10,-17,60,42,68
14890,9,-116,-3880,1513,-14,8,-19,60,42,68
14900,10,-155,-3865,1538,-12,10,-21,61,43,71
14910,11,-141,-3853,1521,-12,11,-20,61,43,71
14920,12,-151,-3881,1532,-12,10,-19,63,41,69
14930,13,-107,-3898,1529,-16,15,-17,63,41,69
14940,14,-123,-3873,1537,-21,14,-15,60,46,68
14950,15,-108,-3913,1522,-13,11,-14,60,46,68
14960,16,-112,-3856,1548,-9,7,-12,64,40,72
14970,17,-122,-3885,1509,-4,8,-13,64,40,72
14980,18,-137,-3871,1551,-11,3,-18,60,44,68
14990,19,-141,-3870,1584,-14,6,-16,60,44,68
15000,20,-134,-3849,1582,-13,12,-21,61,47,65
15010,21,-131,-3842,1563,-18,13,-20,61,47,65
15020,22,-152,-3862,1554,-12,12,-23,60,46,66
15030,23,-128,-3832,1528,-11,18,-22,60,46,66
15040,24,-140,-3850,1576,-17,18,-18,64,44,72
15050,25,-120,-3881,1494,-17,16,-17,64,44,72
15060,26,-128,-3893,1547,-13,11,-16,62,40,68
15070,27,-135,-3890,1547,-14,11,-16,62,40,68
15080,28,-128,-3884,1495,-13,9,-17,60,38,70
15090,29,-157,-3881,1582,-7,15,-19,60,38,70
15100,30,-149,-3873,1571,-19,14,-22,63,39,69
15110,31,-122,-3819,1554,-27,13,-18,63,39,69
15120,32,-127,-3865,1513,-22,13,-22,60,40,72
15130,33,-113,-3819,1538,-20,15,-20,60,40,72
15140,34,-154,-3822,1556,-21,16,-20,63,41,65
15150,35,-133,-3888,1556,-19,14,-16,63,41,65
15160,36,-150,-3860,1532,-18,11,-12,65,45,73
15170,37,-129,-3900,1512,-11,8,-12,65,45,73
15180,38,-140,-3901,1551,-13,3,-12,66,46,68
15190,39,-184,-3890,1555,-13,5,-19,66,46,68
15200,40,-149,-3921,1535,-6,5,-22,64,46,70
15210,41,-152,-3891,1527,-10,4,-22,64,46,70
15220,42,-143,-3883,1548,-15,7,-23,62,42,68
15230,43,-129,-3860,1541,-12,10,-19,62,42,68
15240,44,-116,-3837,1568,-13,9,-22,64,44,70
15250,45,-133,-3835,1529,-14,7,-18,64,44,70
15260,46,-123,-3823,1562,-18,5,-18,63,43,67
15270,47,-140,-3842,1539,-17,2,-16,63,43,67
15280,48,-121,-3869,1554,-16,-2,-16,67,43,73
15290,49,-153,-3817,1566,-14,-2,-15,67,43,73
15300,50,-157,-3865,1580,-20,-3,-12,59,39,71
15310,51,-146,-3865,1544,-19,8,-15,59,39,71
15320,52,-138,-3904,1497,-13,14,-13,63,47,73
15330,53,-120,-3905,1524,-14,16,-17,63,47,73
15340,54,-136,-3897,1521,-13,13,-13,61,41,67
15350,55,-110,-3898,1524,-13,9,-15,61,41,67
15360,56,-112,-3862,1543,-18,5,-14,62,44,68
15370,57,-154,-3875,1516,-10,-2,-14,62,44,68
15380,58,-149,-3876,1549,-16,-2,-10,59,45,73
15390,59,-158,-3841,1517,-17,1,-14,59,45,73
15400,60,-134,-3880,1565,-9,2,-15,61,39,71
15410,61,-123,-3873,1541,-13,6,-16,61,39,71
15420,62,-109,-3887,1564,-16,3,-16,64,44,72
15430,63,-106,-3888,1509,-24,8,-15,64,44,72
15440,64,-107,-3868,1586,-19,9,-16,61,43,67
15450,65,-124,-3912,1521,-15,14,-19,61,43,67
15460,66,-133,-3861,1539,-13,21,-15,61,45,67
15470,67,-146,-3864,1547,-11,16,-11,61,45,67
15480,68,-135,-3861,1494,-15,13,-12,61,39,73
15490,69,-143,-3873,1530,-14,6,-12,61,39,73
15500,70,-154,-3873,1520,-8,0,-14,63,41,69
15510,71,-135,-3842,1564,-9,-2,-16,63,41,69
15520,72,-131,-3874,1551,-11,-5,-14,63,47,75
15530,73,-133,-3868,1545,-20,-3,-19,63,47,75
15540,74,-94,-3845,1524,-19,0,-20,60,44,64
15550,75,-122,-3869,1561,-24,3,-19,60,44,64
15560,76,-127,-3846,1548,-16,12,-20,63,45,73
15570,77,-111,-3871,1536,-14,20,-16,63,45,73
15580,78,-118,-3877,1525,-8,21,-13,62,46,72
15590,79,-121,-3910,1547,-10,22,-12,62,46,72
15600,80,-140,-3922,1540,-8,17,-14,61,47,69
15610,81,-149,-3864,1551,-9,12,-16,61,47,69
15620,82,-162,-3846,1562,-15,7,-18,60,40,76
15630,83,-161,-3869,1523,-18,7,-20,60,40,76
15640,84,-157,-3836,1552,-17,8,-22,60,40,72
15650,85,-136,-3865,1545,-22,16,-26,60,40,72
15660,86,-106,-3820,1558,-26,18,-24,63,45,73
15670,87,-113,-3846,1492,-21,18,-22,63,45,73
15680,88,-117,-3876,1518,-24,11,-17,60,42,68
15690,89,-112,-3880,1502,-27,12,-13,60,42,68
15700,90,-128,-3918,1512,-20,10,-11,59,45,71
15710,91,-126,-3900,1521,-21,10,-11,59,45,71
15720,92,-158,-3893,1555,-16,15,-10,56,40,76
15730,93,-155,-3868,1538,-18,13,-14,56,40,76
15740,94,-171,-3826,1515,-22,7,-15,62,42,70
15750,95,-116,-3845,1531,-24,8,-15,62,42,70
15760,96,-137,-3837,1549,-16,12,-19,62,44,76
15770,97,-136,-3840,1555,-17,14,-17,62,44,76
15780,98,-131,-3835,1552,-15,11,-18,59,45,73
15790,99,-131,-3861,1499,-21,9,-16,59,45,73
15800,100,-125,-3842,1542,-23,7,-11,60,42,70
15810,101,-116,-3906,1509,-22,5,-12,60,42,70
15820,102,-138,-3879,1496,-12,3,-14,61,49,69
15830,103,-185,-3885,1512,-17,8,-14,61,49,69
15840,104,-140,-3885,1546,-13,13,-15,63,39,69
15850,105,-132,-3867,1548,-16,18,-13,63,39,69
15860,106,-135,-3896,1537,-17,13,-13,64,46,72
15870,107,-119,-3839,1527,-14,13,-12,64,46,72
15880,108,-93,-3838,1553,-15,10,-9,61,43,71
15890,109,-114,-3851,1509,-16,11,-11,61,43,71
15900,110,-146,-3842,1543,-19,8,-10,64,42,70
15910,111,-113,-3842,1545,-22,3,-8,64,42,70
15920,112,-126,-3855,1566,-19,7,-15,62,44,72
15930,113,-144,-3857,1530,-15,9,-12,62,44,72
15940,114,-144,-3865,1548,-15,9,-15,64,46,70
15950,115,-135,-3853,1544,-23,11,-18,64,46,70
15960,116,-171,-3879,1527,-31,8,-16,60,44,70
15970,117,-120,-3843,1495,-21,4,-18,60,44,70
15980,118,-138,-3862,1542,-23,0,-15,59,41,69
15990,119,-141,-3842,1566,-20,-4,-14,59,41,69
16000,120,-142,-3855,1564,-18,-4,-12,62,46,74
16010,121,-149,-3869,1563,-23,1,-13,62,46,74
16020,122,-127,-3859,1526,-26,4,-10,62,40,68
16030,123,-125,-3848,1535,-29,3,-10,62,40,68
16040,124,-119,-3873,1528,-29,0,-10,62,46,70
16050,125,-117,-3852,1505,-25,-5,-10,62,46,70
16060,126,-152,-3883,1532,-21,-1,-6,58,42,68
16070,127,-112,-3870,1531,-21,1,-7,58,42,68
16080,128,-154,-3866,1514,-19,-4,-11,56,44,72
16090,129,-128,-3881,1526,-15,-6,-11,56,44,72
16100,130,-138,-3864,1537,-20,-5,-10,61,43,73
16110,131,-152,-3860,1580,-20,3,-12,61,43,73
16120,132,-139,-3857,1542,-21,7,-18,60,42,72
16130,133,-125,-3844,1560,-17,7,-14,60,42,72
16140,134,-134,-3869,1546,-18,6,-15,61,41,71
16150,135,-107,-3852,1499,-19,2,-12,61,41,71
16160,136,-139,-3855,1518,-26,4,-10,65,45,71
16170,137,-119,-3882,1533,-28,7,-8,65,45,71
16180,138,-113,-3871,1551,-25,4,-6,63,41,71
16190,139,-125,-3913,1547,-27,10,-6,63,41,71
16200,140,-118,-3869,1517,-14,9,-10,62,46,72
16210,141,-126,-3894,1522,-18,11,-8,62,46,72
16220,142,-145,-3857,1586,-23,9,-9,59,45,71
16230,143,-132,-3850,1520,-26,14,-12,59,45,71
16240,144,-120,-3875,1542,-24,19,-14,63,41,71
16250,145,-125,-3840,1492,-21,17,-16,63,41,71
16260,146,-143,-3862,1515,-24,17,-18,66,46,70
16270,147,-99,-3868,1504,-31,16,-16,66,46,70
16280,148,-136,-3843,1480,-26,10,-19,58,40,72
16290,149,-155,-3894,1528,-27,7,-19,58,40,72
16300,150,-119,-3872,1524,-22,8,-13,59,41,69
16310,151,-177,-3888,1513,-22,12,-9,59,41,69
16320,152,-160,-3903,1504,-21,13,-8,64,44,70
16330,153,-154,-3880,1505,-30,10,-5,64,44,70
16340,154,-123,-3918,1515,-29,14,-1,65,51,69
16350,155,-104,-3842,1527,-29,12,-5,65,51,69
16360,156,-140,-3868,1522,-24,7,-7,60,44,68
16370,157,-130,-3836,1482,-22,2,-9,60,44,68
16380,158,-136,-3847,1529,-26,-2,-6,61,43,71
16390,159,-125,-3872,1508,-21,-2,-12,61,43,71
16400,160,-126,-3878,1500,-24,5,-12,61,45,69
16410,161,-125,-3895,1491,-24,10,-12,61,45,69
16420,162,-121,-3873,1507,-29,12,-12,69,45,73
16430,163,-146,-3905,1475,-31,8,-17,69,45,73
16440,164,-139,-3900,1499,-25,8,-16,68,46,70
16450,165,-153,-3871,1476,-23,5,-12,68,46,70
16460,166,-128,-3886,1524,-23,7,-12,62,44,70
16470,167,-120,-3882,1523,-26,2,-9,62,44,70
16480,168,-144,-3882,1500,-25,1,-7,64,46,74
16490,169,-160,-3878,1504,-29,2,-6,64,46,74
16500,170,-142,-3881,1523,-28,5,-5,61,41,75
16510,171,-147,-3895,1486,-28,6,-10,61,41,75
16520,172,-173,-3896,1525,-28,9,-14,63,45,69
16530,173,-143,-3893,1482,-24,9,-15,63,45,69
16540,174,-128,-3882,1492,-22,6,-17,60,44,74
16550,175,-132,-3863,1511,-21,8,-18,60,44,74
16560,176,-148,-3892,1507,-19,6,-16,67,45,67
16570,177,-159,-3878,1483,-17,9,-16,67,45,67
16580,178,-122,-3873,1536,-24,6,-19,64,42,66
16590,179,-158,-3886,1501,-15,2,-13,64,42,66
16600,180,-139,-3880,1494,-12,5,-14,61,35,71
16610,181,-152,-3899,1517,-15,9,-14,61,35,71
16620,182,-127,-3878,1561,-19,11,-16,60,42,68
16630,183,-126,-3884,1508,-22,10,-13,60,42,68
16640,184,-132,-3875,1538,-21,3,-14,66,42,76
16650,185,-140,-3882,1484,-19,2,-15,66,42,76
16660,186,-153,-3883,1532,-18,5,-15,63,45,69
16670,187,-141,-3885,1514,-24,13,-16,63,45,69
16680,188,-104,-3845,1522,-21,15,-13,64,44,74
16690,189,-147,-3861,1522,-24,10,-11,64,44,74
16700,190,-145,-3863,1526,-22,8,-15,61,45,75
16710,191,-150,-3866,1527,-23,7,-14,61,45,75
16720,192,-149,-3879,1521,-24,4,-14,58,42,68
16730,193,-147,-3881,1504,-18,5,-14,58,42,68
16740,194,-149,-3889,1495,-17,8,-17,57,43,77
16750,195,-145,-3896,1516,-19,9,-16,57,43,77
16760,196,-126,-3868,1542,-13,5,-19,63,47,73
16770,197,-145,-3864,1503,-15,9,-18,63,47,73
16780,198,-125,-3842,1537,-20,9,-16,62,44,72
16790,199,-158,-3888,1514,-18,10,-16,62,44,72
16800,200,-142,-3901,1489,-16,11,-13,62,44,76
16810,201,-167,-3892,1525,-18,11,-13,62,44,76
16820,202,-143,-3891,1518,-17,6,-14,64,42,74
16830,203,-132,-3869,1518,-10,-3,-14,64,42,74
16840,204,-157,-3898,1537,-4,2,-12,61,35,71
16850,205,-122,-3864,1498,-5,4,-14,61,35,71
16860,206,-136,-3867,1525,-10,10,-14,59,43,69
16870,207,-137,-3870,1487,-16,15,-16,59,43,69
16880,208,-130,-3838,1479,-14,14,-16,62,44,66
16890,209,-123,-3879,1536,-10,13,-16,62,44,66
16900,210,-119,-3876,1483,-17,13,-18,60,46,68
16910,211,-158,-3883,1508,-10,10,-16,60,46,68
16920,212,-151,-3860,1534,-11,7,-17,61,41,67
16930,213,-151,-3873,1493,-18,5,-16,61,41,67
16940,214,-188,-3889,1530,-22,6,-15,57,43,71
16950,215,-115,-3878,1526,-19,9,-21,57,43,71
16960,216,-135,-3899,1485,-19,12,-20,63,39,69
16970,217,-116,-3892,1503,-21,16,-17,63,39,69
16980,218,-120,-3867,1508,-14,13,-20,62,42,72
16990,219,-161,-3895,1492,-15,16,-21,62,42,72
17000,220,-132,-3870,1526,-19,13,-19,65,41,71
17010,221,-153,-3876,1491,-17,14,-15,65,41,71
17020,222,-189,-3885,1500,-19,13,-12,59,45,69
17030,223,-149,-3878,1517,-19,14,-11,59,45,69
17040,224,-147,-3875,1487,-15,16,-11,60,48,72
17050,225,-162,-3860,1516,-11,10,-15,60,48,72
17060,226,-125,-3851,1523,-12,7,-15,61,39,71
17070,227,-138,-3862,1486,-25,0,-18,61,39,71
17080,228,-126,-3860,1478,-28,2,-25,63,45,71
17090,229,-143,-3880,1502,-21,8,-22,63,45,71
17100,230,-120,-3895,1486,-17,10,-22,63,41,69
17110,231,-147,-3902,1496,-9,12,-19,63,41,69
17120,232,-151,-3910,1487,-10,12,-18,59,41,73
17130,233,-149,-3884,1498,-9,19,-12,59,41,73
17140,234,-151,-3869,1445,-8,20,-10,66,40,68
17150,235,-133,-3851,1500,-9,15,-11,66,40,68
17160,236,-175,-3869,1452,-11,11,-14,63,47,73
17170,237,-146,-3885,1446,-12,10,-17,63,47,73
17180,238,-150,-3856,1480,-14,8,-19,58,38,72
17190,239,-162,-3872,1487,-10,6,-21,58,38,72
17200,240,-128,-3873,1498,-13,4,-21,60,40,70
17210,241,-148,-3889,1534,-15,8,-24,60,40,70
17220,242,-122,-3908,1506,-14,9,-23,61,43,71
17230,243,-97,-3881,1535,-18,12,-21,61,43,71
17240,244,-153,-3888,1507,-18,7,-20,61,39,71
17250,245,-144,-3879,1482,-17,10,-19,61,39,71
17260,246,-155,-3869,1530,-14,8,-19,63,43,71
17270,247,-144,-3872,1499,-12,10,-14,63,43,71
17280,248,-145,-3850,1482,-11,6,-12,60,48,70
17290,249,-173,-3885,1514,-10,4,-13,60,48,70
17300,250,-152,-3864,1503,-18,-1,-12,60,44,74
17310,251,-184,-3885,1474,-19,-6,-16,60,44,74
17320,252,-154,-3916,1516,-15,-6,-17,60,40,70
17330,253,-158,-3893,1509,-10,-3,-19,60,40,70
17340,254,-159,-3914,1532,-12,-7,-21,62,44,70
17350,255,-105,-3843,1498,-9,-3,-20,62,44,70
17360,0,-118,-3876,1519,-12,6,-20,64,44,70
17370,1,-107,-3875,1527,-14,18,-17,64,44,70
17380,2,-91,-3847,1516,-16,18,-14,65,41,67
17390,3,-129,-3873,1469,-16,15,-14,65,41,67
17400,4,-112,-3885,1534,-11,13,-17,62,42,70
17410,5,-142,-3880,1492,-10,13,-17,62,42,70
17420,6,-176,-3904,1516,-12,5,-18,62,44,70
17430,7,-164,-3871,1500,-12,13,-17,62,44,70
17440,8,-159,-3903,1522,-16,14,-24,56,46,74
17450,9,-132,-3878,1474,-13,15,-22,56,46,74
17460,10,-136,-3905,1495,-11,15,-26,62,44,70
17470,11,-102,-3900,1484,-9,14,-24,62,44,70
17480,12,-109,-3847,1519,-11,16,-23,64,44,72
17490,13,-130,-3888,1542,-12,13,-23,64,44,72
17500,14,-132,-3866,1534,-12,12,-20,65,43,73
17510,15,-140,-3870,1500,-10,15,-13,65,43,73
17520,16,-160,-3872,1525,-13,17,-13,59,39,73
17530,17,-143,-3859,1528,-13,10,-12,59,39,73
17540,18,-154,-3897,1505,-15,3,-10,66,38,70
17550,19,-157,-3888,1540,-16,-4,-12,66,38,70
17560,20,-164,-3884,1523,-10,0,-13,60,40,72
17570,21,-130,-3889,1532,-7,1,-17,60,40,72
17580,22,-110,-3854,1524,-9,5,-19,65,45,73
17590,23,-103,-3859,1503,-9,12,-16,65,45,73
17600,24,-100,-3888,1538,-8,10,-21,60,42,70
17610,25,-93,-3853,1513,-3,7,-22,60,42,70
17620,26,-136,-3880,1524,-8,8,-17,61,49,73
17630,27,-129,-3869,1488,-4,5,-18,61,49,73
17640,28,-181,-3877,1549,-7,4,-17,64,44,70
17650,29,-153,-3862,1542,-15,6,-15,64,44,70
17660,30,-148,-3848,1529,-20,8,-16,63,41,75
17670,31,-144,-3856,1528,-14,10,-15,63,41,75
17680,32,-136,-3857,1529,-12,9,-14,62,42,70
17690,33,-122,-3888,1537,-11,4,-14,62,42,70
17700,34,-116,-3875,1536,-6,3,-15,60,42,74
17710,35,-137,-3863,1517,-13,0,-12,60,42,74
17720,36,-140,-3893,1500,-16,7,-11,57,39,73
17730,37,-130,-3853,1466,-17,9,-15,57,39,73
17740,38,-133,-3886,1571,-10,17,-16,62,44,70
17750,39,-107,-3881,1549,-15,20,-18,62,44,70
17760,40,-114,-3873,1486,-11,13,-18,67,43,71
17770,41,-147,-3874,1508,-14,14,-18,67,43,71
17780,42,-146,-3848,1537,-12,13,-16,62,42,70
17790,43,-141,-3851,1512,-16,13,-19,62,42,70
17800,44,-140,-3890,1570,-12,11,-18,60,40,70
17810,45,-154,-3884,1534,-9,8,-19,60,40,70
17820,46,-147,-3875,1534,-17,11,-17,60,38,70
17830,47,-105,-3852,1506,-17,11,-13,60,38,70
17840,48,-131,-3836,1525,-14,11,-13,62,42,70
17850,49,-138,-3882,1512,-17,12,-13,62,42,70
17860,50,-103,-3868,1556,-20,12,-13,64,38,70
17870,51,-116,-3848,1521,-20,12,-12,64,38,70
17880,52,-112,-3869,1550,-11,13,-12,60,50,68
17890,53,-122,-3881,1501,-8,11,-12,60,50,68
17900,54,-110,-3890,1530,-14,14,-14,63,37,73
17910,55,-116,-3871,1548,-10,20,-14,63,37,73
17920,56,-145,-3867,1541,-11,16,-17,67,45,71
17930,57,-97,-3853,1513,-10,17,-17,67,45,71
17940,58,-156,-3877,1546,-16,13,-23,62,46,68
17950,59,-126,-3873,1520,-18,8,-19,62,46,68
17960,60,-151,-3857,1505,-20,1,-17,60,44,70
17970,61,-170,-3864,1483,-18,-2,-17,60,44,70
17980,62,-145,-3841,1542,-25,4,-18,62,42,68
17990,63,-125,-3872,1520,-22,9,-15,62,42,68
18000,64,-138,-3857,1508,-30,11,-15,63,49,71
18010,65,-144,-3876,1529,-27,7,-13,63,49,71
18020,66,-164,-3890,1520,-22,-1,-15,64,44,70
18030,67,-143,-3881,1524,-20,-5,-15,64,44,70
18040,68,-170,-3892,1506,-11,-3,-12,61,47,71
18050,69,-156,-3899,1521,-18,-1,-12,61,47,71
18060,70,-146,-3855,1488,-23,5,-11,62,42,68
18070,71,-159,-3898,1492,-23,2,-9,62,42,68
18080,72,-125,-3871,1540,-27,2,-11,67,45,69
18090,73,-116,-3883,1527,-18,-2,-11,67,45,69
18100,74,-133,-3869,1504,-16,-1,-17,64,48,76
18110,75,-152,-3860,1532,-16,2,-20,64,48,76
18120,76,-138,-3884,1513,-12,7,-21,64,44,70
18130,77,-123,-3848,1529,-15,7,-22,64,44,70
18140,78,-128,-3880,1531,-16,2,-19,65,37,67
18150,79,-87,-3882,1568,-16,10,-18,65,37,67
18160,80,-98,-3885,1515,-18,13,-15,65,41,71
18170,81,-103,-3885,1478,-16,16,-14,65,41,71
18180,82,-111,-3844,1505,-19,15,-13,62,44,76
18190,83,-121,-3879,1484,-22,19,-11,62,44,76
18200,84,-160,-3876,1526,-23,18,-17,62,46,70
18210,85,-142,-3869,1520,-27,19,-18,62,46,70
18220,86,-146,-3860,1535,-27,13,-23,58,42,74
18230,87,-129,-3877,1513,-27,7,-20,58,42,74
18240,88,-139,-3896,1519,-29,2,-19,66,40,68
18250,89,-155,-3902,1500,-27,0,-18,66,40,68
18260,90,-149,-3859,1549,-25,3,-17,65,45,69
18270,91,-134,-3895,1491,-28,8,-14,65,45,69
18280,92,-114,-3844,1520,-32,11,-10,65,43,71
18290,93,-111,-3859,1536,-33,10,-9,65,43,71
18300,94,-100,-3866,1528,-30,12,-7,59,41,71
18310,95,-91,-3849,1508,-25,11,-4,59,41,71
18320,96,-116,-3892,1521,-20,8,-11,60,44,70
18330,97,-115,-3883,1539,-27,9,-11,60,44,70
18340,98,-152,-3865,1529,-24,7,-12,64,40,70
18350,99,-156,-3897,1517,-21,12,-13,64,40,70
18360,100,-156,-3876,1517,-20,13,-15,61,45,69
18370,101,-111,-3911,1525,-16,11,-17,61,45,69
18380,102,-124,-3848,1518,-12,7,-19,56,40,74
18390,103,-122,-3876,1482,-17,1,-18,56,40,74
18400,104,-163,-3858,1518,-26,1,-16,65,41,71
18410,105,-142,-3839,1496,-26,1,-15,65,41,71
18420,106,-147,-3878,1504,-28,5,-11,63,43,67
18430,107,-144,-3866,1512,-27,10,-7,63,43,67
18440,108,-120,-3900,1512,-27,15,-6,62,44,72
18450,109,-146,-3910,1480,-21,18,-5,62,44,72
18460,110,-109,-3864,1516,-18,14,-10,59,41,75
18470,111,-142,-3901,1487,-20,8,-11,59,41,75
18480,112,-118,-3881,1535,-22,3,-11,62,44,72
18490,113,-143,-3873,1508,-21,1,-15,62,44,72
18500,114,-142,-3902,1566,-14,5,-18,61,43,73
18510,115,-160,-3871,1532,-13,11,-19,61,43,73
18520,116,-148,-3922,1498,-22,11,-15,65,43,73
18530,117,-126,-3833,1524,-28,13,-16,65,43,73
18540,118,-127,-3860,1536,-31,16,-14,62,42,70
18550,119,-147,-3890,1529,-29,17,-11,62,42,70
18560,120,-113,-3848,1484,-30,13,-11,61,47,67
18570,121,-120,-3864,1495,-31,6,-12,61,47,67
18580,122,-146,-3869,1458,-29,2,-10,64,42,72
18590,123,-145,-3891,1482,-26,6,-10,64,42,72
18600,124,-119,-3910,1473,-23,5,-12,62,42,76
18610,125,-121,-3880,1488,-30,6,-14,62,42,76
18620,126,-142,-3911,1465,-36,6,-14,63,43,69
18630,127,-145,-3890,1484,-32,4,-12,63,43,69
18640,128,-167,-3887,1458,-32,3,-16,65,47,71
18650,129,-149,-3892,1495,-25,6,-15,65,47,71
18660,130,-137,-3876,1513,-26,9,-8,61,41,67
18670,131,-138,-3904,1480,-28,11,-7,61,41,67
18680,132,-150,-3869,1506,-29,11,-6,65,43,71
18690,133,-143,-3841,1471,-28,11,-6,65,43,71
18700,134,-152,-3869,1468,-35,7,-10,66,44,72
18710,135,-145,-3864,1449,-31,5,-8,66,44,72
18720,136,-125,-3881,1456,-27,0,-12,64,46,66
18730,137,-143,-3925,1504,-28,0,-14,64,46,66
18740,138,-134,-3916,1498,-26,5,-14,61,45,75
18750,139,-139,-3871,1499,-27,8,-14,61,45,75
18760,140,-154,-3889,1512,-32,4,-12,63,45,69
18770,141,-124,-3867,1463,-30,6,-11,63,45,69
18780,142,-128,-3892,1461,-29,7,-11,65,39,73
18790,143,-140,-3897,1469,-28,4,-8,65,39,73
18800,144,-130,-3885,1485,-26,7,-11,58,44,76
18810,145,-145,-3907,1477,-27,11,-8,58,44,76
18820,146,-114,-3859,1481,-21,5,-8,62,44,72
18830,147,-140,-3912,1456,-25,5,-9,62,44,72
18840,148,-164,-3900,1505,-28,6,-11,64,44,78
18850,149,-162,-3873,1462,-31,7,-11,64,44,78
18860,150,-171,-3899,1488,-22,9,-12,65,41,65
18870,151,-134,-3881,1451,-29,7,-9,65,41,65
18880,152,-139,-3889,1490,-29,3,-5,60,44,70
18890,153,-140,-3886,1457,-25,2,-10,60,44,70
18900,154,-116,-3888,1478,-13,6,-11,63,41,75
18910,155,-148,-3931,1508,-16,9,-12,63,41,75
18920,156,-119,-3862,1488,-28,9,-15,62,40,70
18930,157,-143,-3886,1471,-27,10,-14,62,40,70
18940,158,-141,-3897,1509,-28,13,-17,63,43,73
18950,159,-106,-3855,1492,-27,15,-14,63,43,73
18960,160,-138,-3913,1505,-28,21,-9,63,45,69
18970,161,-126,-3839,1468,-29,24,-10,63,45,69
18980,162,-153,-3852,1496,-33,24,-11,63,47,75
18990,163,-136,-3887,1467,-25,15,-11,63,47,75
19000,164,-154,-3872,1496,-26,8,-11,61,43,71
19010,165,-155,-3884,1465,-23,-1,-15,61,43,71
19020,166,-154,-3874,1478,-26,-6,-18,63,43,71
19030,167,-154,-3908,1495,-27,-2,-15,63,43,71
19040,168,-168,-3899,1472,-33,-1,-16,63,41,69
19050,169,-137,-3887,1517,-29,7,-13,63,41,69
19060,170,-120,-3903,1479,-28,15,-11,61,41,73
19070,171,-98,-3874,1474,-32,20,-8,61,41,73
19080,172,-120,-3882,1483,-19,21,-4,60,42,70
19090,173,-105,-3887,1443,-27,14,-6,60,42,70
19100,174,-163,-3856,1460,-25,10,-2,62,42,76
19110,175,-161,-3876,1451,-25,3,-4,62,42,76
19120,176,-161,-3899,1474,-18,-1,-9,61,45,75
19130,177,-191,-3887,1472,-18,-1,-8,61,45,75
19140,178,-174,-3913,1475,-23,4,-12,63,41,71
19150,179,-142,-3906,1472,-21,5,-19,63,41,71
19160,180,-134,-3891,1473,-13,7,-16,65,43,73
19170,181,-131,-3872,1475,-18,5,-17,65,43,73
19180,182,-114,-3886,1442,-17,4,-17,62,42,70
19190,183,-129,-3887,1494,-16,6,-13,62,42,70
19200,184,-116,-3859,1490,-15,9,-15,62,36,74
19210,185,-153,-3930,1513,-14,12,-12,62,36,74
19220,186,-136,-3895,1472,-14,15,-11,66,46,70
19230,187,-164,-3902,1460,-17,19,-12,66,46,70
19240,188,-116,-3885,1494,-17,19,-14,69,47,71
19250,189,-152,-3844,1477,-10,19,-11,69,47,71
19260,190,-154,-3899,1426,-8,12,-16,60,42,72
19270,191,-135,-3878,1496,-16,11,-17,60,42,72
19280,192,-158,-3879,1463,-16,9,-20,63,41,73
19290,193,-167,-3872,1475,-17,9,-18,63,41,73
19300,194,-139,-3872,1456,-18,10,-17,62,42,72
19310,195,-159,-3889,1465,-20,9,-18,62,42,72
19320,196,-160,-3884,1464,-24,12,-17,65,45,69
19330,197,-157,-3885,1501,-22,9,-21,65,45,69
19340,198,-177,-3882,1480,-22,9,-15,64,42,70
19350,199,-161,-3879,1469,-24,7,-14,64,42,70
19360,200,-148,-3896,1416,-29,6,-10,61,45,67
19370,201,-146,-3887,1430,-27,8,-12,61,45,67
19380,202,-156,-3890,1402,-27,5,-7,62,46,72
19390,203,-122,-3878,1431,-27,5,-7,62,46,72
19400,204,-124,-3891,1469,-24,4,-7,61,39,75
19410,205,-133,-3919,1413,-27,-1,-9,61,39,75
19420,206,-159,-3906,1448,-29,0,-15,63,47,69
19430,207,-151,-3930,1460,-32,0,-19,63,47,69
19440,208,-142,-3936,1454,-30,2,-21,65,39,71
19450,209,-139,-3897,1470,-23,0,-20,65,39,71
19460,210,-169,-3878,1465,-28,1,-19,58,42,76
19470,211,-162,-3894,1433,-31,-1,-15,58,42,76
19480,212,-177,-3881,1442,-27,-2,-16,61,43,69
19490,213,-157,-3910,1453,-24,-2,-13,61,43,69
19500,214,-165,-3867,1452,-20,-2,-13,62,44,74
19510,215,-141,-3919,1483,-19,-9,-14,62,44,74
19520,216,-108,-3926,1501,-12,-5,-12,64,40,76
19530,217,-120,-3911,1462,-11,0,-13,64,40,76
19540,218,-120,-3920,1458,-9,6,-18,64,48,72
19550,219,-122,-3897,1494,-10,11,-19,64,48,72
19560,220,-133,-3920,1457,-5,11,-20,62,44,72
19570,221,-155,-3882,1487,-14,12,-20,62,44,72
19580,222,-180,-3873,1421,-19,8,-23,57,49,73
19590,223,-193,-3866,1427,-16,2,-21,57,49,73
19600,224,-185,-3835,1497,-13,-1,-17,59,41,75
19610,225,-187,-3896,1463,-15,-1,-15,59,41,75
19620,226,-142,-3884,1445,-12,-1,-18,66,42,70
19630,227,-157,-3928,1509,-5,-3,-17,66,42,70
19640,228,-158,-3921,1493,-2,-4,-15,59,45,73
19650,229,-139,-3916,1443,-18,-4,-11,59,45,73
19660,230,-148,-3920,1446,-12,1,-12,62,40,70
19670,231,-155,-3892,1488,-13,8,-17,62,40,70
19680,232,-140,-3901,1503,-3,12,-13,62,48,72
19690,233,-143,-3927,1452,-8,10,-16,62,48,72
19700,234,-139,-3897,1499,-6,8,-11,60,42,70
19710,235,-146,-3899,1434,-7,7,-13,60,42,70
19720,236,-137,-3869,1480,-6,2,-13,61,43,69
19730,237,-174,-3883,1453,-9,-2,-17,61,43,69
19740,238,-169,-3899,1452,-7,-4,-15,64,44,74
19750,239,-146,-3881,1458,-10,-3,-21,64,44,74
19760,240,-176,-3880,1489,-9,-2,-22,66,44,66
19770,241,-147,-3896,1476,-7,1,-20,66,44,66
19780,242,-154,-3890,1480,-4,-1,-22,63,45,69
19790,243,-132,-3887,1470,-7,1,-17,63,45,69
19800,244,-151,-3884,1467,-8,2,-15,67,43,75
19810,245,-154,-3914,1418,-5,7,-13,67,43,75
19820,246,-131,-3865,1514,-11,7,-11,63,41,67
19830,247,-139,-3878,1480,-13,11,-13,63,41,67
19840,248,-143,-3899,1501,-11,10,-11,61,41,73
19850,249,-139,-3884,1486,-11,4,-13,61,41,73
19860,250,-147,-3892,1497,-8,-5,-16,64,44,74
19870,251,-136,-3883,1435,-13,-10,-13,64,44,74
19880,252,-161,-3877,1468,-8,-6,-12,66,44,70
19890,253,-134,-3906,1460,-8,0,-13,66,44,70
19900,254,-127,-3871,1463,-10,8,-16,61,45,71
19910,255,-147,-3907,1490,-7,9,-17,61,45,71
19920,0,-128,-3874,1475,-12,9,-18,65,43,75
19930,1,-134,-3888,1448,-10,4,-20,65,43,75
19940,2,-156,-3886,1484,-16,10,-12,63,39,77
19950,3,-133,-3856,1487,-14,8,-14,63,39,77
19960,4,-158,-3887,1451,-12,7,-14,61,45,71
19970,5,-122,-3882,1451,-9,5,-13,61,45,71
19980,6,-148,-3894,1464,-9,5,-14,66,48,72
19990,7,-142,-3921,1497,-3,7,-10,66,48,72
20000,8,-150,-3849,1497,-8,8,-15,65,43,75
20010,9,-150,-3887,1469,-14,11,-14,65,43,75
20020,10,-128,-3864,1470,-15,17,-15,58,40,74
20030,11,-120,-3857,1442,-18,17,-16,58,40,74
20040,12,-130,-3906,1495,-10,20,-16,64,40,76
20050,13,-90,-3883,1466,-7,23,-21,64,40,76
20060,14,-146,-3862,1493,-1,20,-17,62,44,72
20070,15,-140,-3880,1456,-4,15,-17,62,44,72
20080,16,-163,-3882,1474,-16,18,-16,63,45,75
20090,17,-153,-3902,1465,-15,16,-19,63,45,75
20100,18,-140,-3897,1501,-10,18,-24,63,43,69
20110,19,-135,-3884,1511,-11,19,-20,63,43,69
20120,20,-112,-3894,1461,-10,15,-18,63,47,71
20130,21,-97,-3892,1508,-10,15,-17,63,47,71
20140,22,-114,-3878,1466,-10,21,-16,63,41,73
20150,23,-139,-3859,1472,-8,25,-17,63,41,73
20160,24,-132,-3851,1490,-14,24,-14,64,40,72
20170,25,-145,-3884,1443,-16,23,-13,64,40,72
20180,26,-140,-3893,1466,-16,25,-12,62,50,68
20190,27,-129,-3896,1488,-9,17,-13,62,50,68
20200,28,-142,-3910,1492,-4,15,-17,58,46,70
20210,29,-143,-3892,1501,-12,12,-18,58,46,70
20220,30,-151,-3880,1480,-14,5,-18,64,36,70
20230,31,-126,-3900,1474,-6,5,-21,64,36,70
20240,32,-126,-3864,1518,-8,6,-18,63,47,75
20250,33,-146,-3867,1537,-14,12,-23,63,47,75
20260,34,-120,-3882,1504,-12,19,-17,61,47,69
20270,35,-106,-3886,1484,-15,22,-19,61,47,69
20280,36,-97,-3905,1452,-18,18,-17,66,44,70
20290,37,-129,-3881,1475,-17,17,-16,66,44,70
20300,38,-131,-3906,1448,-15,11,-15,66,44,70
20310,39,-125,-3872,1493,-13,8,-17,66,44,70
20320,40,-171,-3890,1501,-15,5,-15,57,41,73
20330,41,-146,-3915,1479,-17,5,-16,57,41,73
20340,42,-158,-3900,1498,-14,2,-18,60,42,68
20350,43,-152,-3907,1498,-10,5,-18,60,42,68
20360,44,-138,-3892,1491,-15,5,-17,65,41,67
20370,45,-163,-3860,1478,-19,8,-16,65,41,67
20380,46,-95,-3886,1438,-17,7,-16,62,40,72
20390,47,-114,-3860,1482,-16,2,-15,62,40,72
20400,48,-122,-3878,1433,-14,-2,-16,69,43,71
20410,49,-141,-3875,1478,-15,-1,-15,69,43,71
20420,50,-123,-3895,1490,-14,-3,-14,63,41,71
20430,51,-144,-3896,1461,-21,-5,-16,63,41,71
20440,52,-127,-3892,1522,-18,0,-15,62,44,72
20450,53,-126,-3900,1464,-14,9,-16,62,44,72
20460,54,-115,-3882,1482,-13,19,-23,61,39,71
20470,55,-92,-3879,1473,-12,27,-18,61,39,71
20480,56,-103,-3890,1474,-9,28,-20,64,38,74
20490,57,-104,-3892,1498,-12,21,-17,64,38,74
20500,58,-163,-3891,1496,-16,19,-18,64,44,68
20510,59,-122,-3876,1459,-19,20,-18,64,44,68
20520,60,-155,-3896,1498,-17,20,-19,63,47,71
20530,61,-159,-3890,1475,-17,19,-23,63,47,71
20540,62,-152,-3860,1518,-20,15,-24,61,43,73
20550,63,-169,-3864,1477,-20,14,-23,61,43,73
20560,64,-157,-3858,1495,-19,18,-16,58,44,74
20570,65,-166,-3869,1443,-19,17,-18,58,44,74
20580,66,-164,-3884,1491,-18,13,-19,65,39,71
20590,67,-133,-3888,1455,-24,5,-18,65,39,71
20600,68,-153,-3902,1509,-29,5,-14,62,42,74
20610,69,-146,-3910,1456,-25,1,-10,62,42,74
20620,70,-147,-3862,1488,-18,6,-9,63,45,71
20630,71,-167,-3905,1468,-19,6,-4,63,45,71
20640,72,-146,-3900,1514,-16,1,-1,59,45,77
20650,73,-176,-3877,1498,-21,-1,-4,59,45,77
20660,74,-168,-3868,1499,-23,-1,-4,61,45,69
20670,75,-170,-3851,1469,-25,-4,-6,61,45,69
20680,76,-147,-3880,1481,-28,-4,-6,55,43,69
20690,77,-133,-3833,1515,-24,-2,-10,55,43,69
20700,78,-148,-3904,1496,-21,-1,-13,62,44,72
20710,79,-111,-3883,1474,-19,-4,-11,62,44,72
20720,80,-133,-3849,1447,-17,-5,-14,67,47,71
20730,81,-137,-3902,1455,-23,-4,-12,67,47,71
20740,82,-132,-3891,1486,-25,1,-7,64,38,74
20750,83,-107,-3925,1428,-19,1,-5,64,38,74
20760,84,-132,-3924,1503,-11,-1,0,60,50,70
20770,85,-153,-3921,1446,-12,-4,-3,60,50,70
20780,86,-173,-3881,1480,-4,-10,-1,66,42,68
20790,87,-149,-3878,1508,-16,-10,0,66,42,68
20800,88,-159,-3863,1514,-21,-1,-5,63,41,75
20810,89,-148,-3855,1463,-26,9,-6,63,41,75
20820,90,-107,-3843,1473,-26,13,-10,62,42,68
20830,91,-101,-3893,1500,-18,12,-16,62,42,68
20840,92,-117,-3879,1490,-9,5,-14,61,39,73
20850,93,-99,-3900,1461,-11,11,-19,61,39,73
20860,94,-100,-3919,1470,-9,15,-18,65,41,67
20870,95,-133,-3893,1441,-14,23,-17,65,41,67
20880,96,-145,-3926,1489,-18,24,-19,61,47,67
20890,97,-121,-3913,1458,-23,25,-20,61,47,67
20900,98,-128,-3918,1498,-21,22,-26,63,43,75
20910,99,-141,-3890,1471,-21,22,-28,63,43,75
20920,100,-147,-3887,1484,-18,20,-28,64,46,74
20930,101,-174,-3901,1452,-17,21,-26,64,46,74
20940,102,-175,-3879,1468,-26,22,-21,65,45,71
20950,103,-171,-3900,1495,-25,21,-14,65,45,71
20960,104,-139,-3913,1467,-25,21,-11,65,45,77
20970,105,-155,-3883,1471,-23,11,-11,65,45,77
20980,106,-158,-3952,1483,-15,8,-6,63,43,77
20990,107,-155,-3887,1497,-14,10,-11,63,43,77
21000,108,-169,-3900,1468,-12,6,-9,63,43,71
21010,109,-167,-3913,1484,-12,4,-9,63,43,71
21020,110,-157,-3886,1501,-20,11,-13,64,44,76
21030,111,-153,-3883,1475,-15,14,-16,64,44,76
21040,112,-132,-3858,1454,-20,8,-15,63,43,73
21050,113,-123,-3875,1477,-24,5,-16,63,43,73
21060,114,-149,-3861,1477,-22,6,-14,60,44,72
21070,115,-165,-3856,1448,-28,1,-14,60,44,72
21080,116,-168,-3875,1459,-21,0,-16,65,47,77
21090,117,-150,-3902,1503,-17,0,-14,65,47,77
21100,118,-177,-3921,1477,-13,-5,-13,68,42,68
21110,119,-171,-3898,1463,-7,-4,-11,68,42,68
21120,120,-150,-3914,1465,-10,-4,-11,62,48,76
21130,121,-176,-3930,1452,-16,-2,-11,62,48,76
21140,122,-172,-3904,1452,-13,2,-11,63,41,69
21150,123,-130,-3897,1469,-6,2,-9,63,41,69
21160,124,-116,-3875,1481,-6,4,-10,62,40,70
21170,125,-133,-3878,1471,-12,5,-9,62,40,70
21180,126,-157,-3875,1460,-13,4,-7,63,43,75
21190,127,-121,-3863,1457,-22,8,-12,63,43,75
21200,128,-142,-3856,1424,-24,9,-14,62,44,76
21210,129,-95,-3865,1439,-18,10,-15,62,44,76
21220,130,-116,-3856,1479,-14,17,-16,64,44,66
21230,131,-130,-3909,1467,-14,21,-20,64,44,66
21240,132,-124,-3902,1450,-10,20,-24,57,41,69
21250,133,-148,-3951,1470,-8,22,-22,57,41,69
21260,134,-155,-3920,1516,-12,18,-21,65,43,73
21270,135,-168,-3924,1447,-14,20,-19,65,43,73
21280,136,-187,-3910,1500,-13,23,-19,59,47,75
21290,137,-145,-3881,1472,-6,24,-21,59,47,75
21300,138,-166,-3895,1470,-4,19,-23,59,45,71
21310,139,-133,-3882,1514,-8,14,-22,59,45,71
21320,140,-131,-3848,1446,-17,9,-22,63,39,77
21330,141,-136,-3883,1448,-17,11,-22,63,39,77
21340,142,-109,-3831,1499,-17,17,-17,61,43,73
21350,143,-173,-3836,1449,-17,19,-20,61,43,73
21360,144,-136,-3875,1498,-19,13,-18,58,42,74
21370,145,-191,-3886,1474,-16,8,-15,58,42,74
21380,146,-172,-3926,1453,-18,6,-15,60,44,66
21390,147,-174,-3883,1474,-10,8,-15,60,44,66
21400,148,-142,-3914,1485,-10,9,-12,62,38,68
21410,149,-174,-3871,1473,-13,3,-12,62,38,68
21420,150,-169,-3877,1419,-18,2,-15,67,39,75
21430,151,-159,-3925,1489,-17,-1,-16,67,39,75
21440,152,-130,-3871,1507,-12,0,-16,62,44,76
21450,153,-150,-3888,1518,-13,4,-17,62,44,76
21460,154,-130,-3884,1480,-18,4,-18,63,45,69
21470,155,-110,-3872,1512,-16,1,-18,63,45,69
21480,156,-165,-3897,1437,-8,1,-17,61,39,67
21490,157,-170,-3872,1482,-10,3,-18,61,39,67
21500,158,-177,-3876,1471,-17,7,-15,63,43,67
21510,159,-155,-3888,1458,-16,11,-9,63,43,67
21520,160,-137,-3879,1461,-10,9,-9,59,41,81
21530,161,-128,-3940,1470,-14,10,-12,59,41,81
21540,162,-135,-3871,1486,-4,8,-15,62,40,72
21550,163,-143,-3921,1449,-8,5,-17,62,40,72
21560,164,-121,-3904,1499,-7,3,-14,59,43,73
21570,165,-145,-3879,1504,-5,2,-19,59,43,73
21580,166,-173,-3884,1501,-12,9,-17,54,42,74
21590,167,-166,-3877,1520,-12,9,-17,54,42,74
21600,168,-161,-3915,1456,-19,8,-16,63,47,69
21610,169,-108,-3861,1549,-17,17,-11,63,47,69
21620,170,-138,-3855,1498,-14,12,-13,62,44,70
21630,171,-132,-3857,1499,-23,0,-13,62,44,70
21640,172,-134,-3862,1509,-21,-2,-14,61,45,69
21650,173,-177,-3906,1494,-25,-1,-12,61,45,69
21660,174,-186,-3917,1492,-29,2,-12,57,39,73
21670,175,-151,-3919,1467,-33,7,-10,57,39,73
21680,176,-153,-3889,1496,-31,11,-6,62,44,70
21690,177,-133,-3913,1460,-31,9,-6,62,44,70
21700,178,-124,-3907,1447,-22,3,-7,62,42,74
21710,179,-112,-3928,1473,-10,-11,-9,62,42,74
21720,180,-134,-3922,1447,1,-16,-11,68,42,78
21730,181,-166,-3876,1450,-5,-14,-10,68,42,78
21740,182,-167,-3890,1452,-13,-10,-12,62,42,70
21750,183,-177,-3872,1437,-15,-3,-15,62,42,70
21760,184,-166,-3861,1490,-10,-5,-16,62,46,72
21770,185,-179,-3880,1497,-7,-4,-17,62,46,72
21780,186,-166,-3859,1507,-8,-7,-11,66,36,72
21790,187,-163,-3918,1493,-11,-5,-7,66,36,72
21800,188,-139,-3876,1460,-12,0,-3,63,47,73
21810,189,-99,-3867,1463,-9,5,-6,63,47,73
21820,190,-123,-3909,1464,-3,2,-3,62,42,68
21830,191,-89,-3871,1481,0,1,-8,62,42,68
21840,192,-146,-3911,1455,-7,-2,-13,65,37,73
21850,193,-118,-3860,1440,-10,5,-19,65,37,73
21860,194,-146,-3855,1445,-16,11,-21,63,41,71
21870,195,-132,-3897,1465,-16,8,-25,63,41,71
21880,196,-128,-3860,1453,-7,9,-27,64,42,72
21890,197,-142,-3915,1483,-4,9,-24,64,42,72
21900,198,-131,-3902,1517,-9,13,-22,60,40,74
21910,199,-154,-3898,1467,-7,11,-21,60,40,74
21920,200,-131,-3907,1463,-12,17,-18,68,44,76
21930,201,-117,-3888,1471,-9,17,-15,68,44,76
21940,202,-136,-3915,1480,-18,17,-14,59,45,71
21950,203,-152,-3899,1508,-13,16,-15,59,45,71
21960,204,-163,-3859,1473,-14,9,-20,64,44,74
21970,205,-163,-3838,1454,-12,7,-18,64,44,74
21980,206,-147,-3841,1479,-16,9,-16,61,45,67
21990,207,-162,-3882,1466,-16,12,-19,61,45,67
22000,208,-156,-3907,1468,-15,8,-22,59,43,75
22010,209,-112,-3880,1480,-14,10,-17,59,43,75
22020,210,-114,-3902,1465,-16,11,-19,63,41,75
22030,211,-128,-3874,1450,-13,10,-19,63,41,75
22040,212,-116,-3897,1501,-15,8,-20,60,36,72
22050,213,-161,-3886,1531,-12,11,-19,60,36,72
22060,214,-145,-3858,1491,-10,13,-14,66,40,72
22070,215,-155,-3887,1473,-21,12,-15,66,40,72
22080,216,-137,-3871,1446,-21,11,-16,66,42,76
22090,217,-162,-3935,1493,-19,11,-16,66,42,76
22100,218,-145,-3904,1462,-3,16,-18,63,43,71
22110,219,-112,-3889,1522,-4,16,-23,63,43,71
22120,220,-135,-3893,1476,-11,15,-19,63,41,69
22130,221,-106,-3864,1462,-15,12,-27,63,41,69
22140,222,-133,-3887,1443,-17,10,-23,57,43,71
22150,223,-124,-3894,1472,-14,13,-21,57,43,71
22160,224,-123,-3883,1486,-11,19,-20,65,41,71
22170,225,-147,-3887,1456,-15,19,-13,65,41,71
22180,226,-140,-3854,1496,-17,21,-18,60,40,72
22190,227,-141,-3864,1530,-12,16,-22,60,40,72
22200,228,-163,-3882,1516,-11,17,-19,62,46,70
22210,229,-165,-3867,1498,-18,19,-22,62,46,70
22220,230,-135,-3886,1524,-22,23,-23,66,40,70
22230,231,-121,-3878,1460,-10,19,-24,66,40,70
22240,232,-129,-3900,1496,-16,17,-21,64,42,68
22250,233,-128,-3882,1438,-12,16,-18,64,42,68
22260,234,-145,-3875,1504,-19,10,-14,61,43,75
22270,235,-153,-3892,1448,-15,7,-17,61,43,75
22280,236,-150,-3887,1502,-12,3,-17,66,44,70
22290,237,-185,-3907,1520,-14,2,-16,66,44,70
22300,238,-183,-3898,1524,-15,-3,-13,60,44,72
22310,239,-196,-3906,1511,-21,1,-9,60,44,72
22320,240,-191,-3891,1463,-19,7,-8,65,43,71
22330,241,-110,-3861,1458,-15,6,-4,65,43,71
22340,242,-142,-3899,1503,-11,2,-7,64,42,72
22350,243,-105,-3887,1480,-13,-5,-7,64,42,72
22360,244,-126,-3852,1438,-16,-10,-13,61,43,75
22370,245,-121,-3906,1478,-19,-10,-11,61,43,75
22380,246,-142,-3874,1455,-15,-10,-14,65,41,71
22390,247,-147,-3885,1452,-18,-4,-18,65,41,71
22400,248,-138,-3885,1442,-20,1,-15,62,44,68
22410,249,-122,-3867,1476,-19,3,-13,62,44,68
22420,250,-159,-3930,1468,-18,6,-14,63,43,71
22430,251,-133,-3876,1412,-10,3,-11,63,43,71
22440,252,-176,-3908,1450,-15,-7,-12,64,42,72
22450,253,-145,-3886,1446,-12,-11,-14,64,42,72
22460,254,-181,-3876,1473,-16,-12,-15,62,46,78
22470,255,-141,-3894,1517,-14,-6,-15,62,46,78
22480,0,-145,-3889,1520,-14,-1,-13,56,42,74
22490,1,-109,-3914,1479,-19,2,-14,56,42,74
22500,2,-103,-3879,1497,-15,1,-15,58,44,70
22510,3,-124,-3871,1479,-11,10,-11,58,44,70
22520,4,-115,-3869,1498,-9,15,-17,65,43,69
22530,5,-114,-3871,1480,-8,22,-16,65,43,69
22540,6,-121,-3900,1477,-8,24,-18,60,44,72
22550,7,-119,-3908,1467,-6,22,-17,60,44,72
22560,8,-141,-3886,1499,-9,19,-22,58,42,70
22570,9,-167,-3899,1520,-13,14,-24,58,42,70
22580,10,-152,-3861,1483,-16,13,-23,64,44,74
22590,11,-165,-3878,1455,-19,10,-20,64,44,74
22600,12,-169,-3872,1475,-18,9,-18,59,41,71
22610,13,-160,-3891,1467,-19,6,-20,59,41,71
22620,14,-173,-3882,1482,-17,9,-17,63,39,75
22630,15,-167,-3877,1472,-14,15,-18,63,39,75
22640,16,-141,-3897,1490,-21,14,-18,61,45,73
22650,17,-138,-3902,1468,-16,7,-12,61,45,73
22660,18,-126,-3899,1460,-14,1,-11,61,39,73
22670,19,-160,-3923,1512,-15,-1,-14,61,39,73
22680,20,-146,-3903,1456,-10,3,-12,63,41,75
22690,21,-144,-3908,1485,-13,7,-14,63,41,75
22700,22,-143,-3893,1499,-9,7,-13,63,43,73
22710,23,-136,-3890,1454,-13,11,-9,63,43,73
22720,24,-111,-3885,1500,-10,7,-8,58,42,72
22730,25,-115,-3891,1473,-14,9,-12,58,42,72
22740,26,-125,-3868,1499,-10,8,-11,58,42,74
22750,27,-116,-3903,1515,-11,5,-13,58,42,74
22760,28,-133,-3841,1472,-10,2,-13,63,41,71
22770,29,-143,-3883,1456,-10,7,-13,63,41,71
22780,30,-132,-3852,1489,-14,8,-17,68,46,66
22790,31,-142,-3897,1482,-13,9,-16,68,46,66
22800,32,-121,-3871,1441,-16,10,-19,62,44,70
22810,33,-128,-3868,1443,-25,10,-16,62,44,70
22820,34,-112,-3895,1458,-24,9,-15,60,44,68
22830,35,-120,-3895,1455,-17,4,-17,60,44,68
22840,36,-132,-3900,1489,-13,2,-14,62,44,72
22850,37,-155,-3915,1505,-6,5,-12,62,44,72
22860,38,-156,-3913,1525,-9,7,-10,63,45,73
22870,39,-171,-3918,1483,-11,13,-10,63,45,73
22880,40,-152,-3923,1426,-11,13,-8,60,44,70
22890,41,-129,-3914,1470,-2,17,-10,60,44,70
22900,42,-127,-3879,1474,2,19,-15,62,42,66
22910,43,-122,-3905,1492,3,17,-20,62,42,66
22920,44,-122,-3907,1458,-4,12,-23,62,44,74
22930,45,-112,-3852,1419,-7,8,-30,62,44,74
22940,46,-156,-3855,1466,-6,8,-32,60,44,72
22950,47,-129,-3857,1453,-7,14,-30,60,44,72
22960,48,-127,-3881,1496,-1,20,-26,63,43,71
22970,49,-125,-3938,1534,-5,26,-21,63,43,71
22980,50,-132,-3906,1483,-8,29,-18,65,39,73
22990,51,-119,-3876,1465,-11,27,-17,65,39,73
23000,52,-137,-3835,1481,-16,24,-14,68,42,74
23010,53,-148,-3808,1476,-7,17,-15,68,42,74
23020,54,-168,-3854,1522,-1,16,-16,59,43,71
23030,55,-194,-3900,1553,3,21,-22,59,43,71
23040,56,-158,-3894,1477,-6,22,-22,62,38,70
23050,57,-157,-3914,1482,-21,18,-20,62,38,70
23060,58,-143,-3868,1507,-20,12,-16,63,43,71
23070,59,-137,-3884,1485,-13,2,-22,63,43,71
23080,60,-137,-3890,1526,-8,-2,-20,61,45,67
23090,61,-140,-3879,1527,-7,-1,-18,61,45,67
23100,62,-159,-3877,1491,-12,3,-19,59,39,71
23110,63,-160,-3868,1519,-12,9,-18,59,39,71
23120,64,-154,-3877,1529,-10,7,-18,61,45,71
23130,65,-164,-3886,1549,-4,5,-16,61,45,71
23140,66,-174,-3868,1508,-3,2,-15,58,40,70
23150,67,-142,-3891,1429,5,0,-13,58,40,70
23160,68,-124,-3897,1508,6,-2,-14,61,41,73
23170,69,-138,-3899,1531,6,0,-14,61,41,73
23180,70,-107,-3849,1491,-1,1,-12,66,38,74
23190,71,-128,-3882,1502,-10,1,-16,66,38,74
23200,72,-122,-3877,1522,-8,2,-17,62,42,72
23210,73,-100,-3882,1481,-7,5,-18,62,42,72
23220,74,-128,-3902,1551,-1,5,-20,57,43,71
23230,75,-111,-3871,1524,-3,10,-21,57,43,71
23240,76,-108,-3884,1540,-11,18,-22,65,43,69
23250,77,-117,-3872,1519,-18,23,-21,65,43,69
23260,78,-141,-3855,1470,-10,21,-24,65,41,67
23270,79,-147,-3873,1452,-6,13,-24,65,41,67
23280,80,-137,-3835,1485,-10,9,-21,54,42,72
23290,81,-177,-3884,1538,-10,4,-21,54,42,72
23300,82,-177,-3879,1530,-12,7,-19,60,38,76
23310,83,-164,-3904,1493,-17,9,-18,60,38,76
23320,84,-172,-3938,1493,-16,9,-16,70,40,68
23330,85,-142,-3899,1473,-11,10,-17,70,40,68
23340,86,-127,-3890,1490,-9,11,-16,57,43,69
23350,87,-121,-3899,1515,-4,12,-13,57,43,69
23360,88,-116,-3855,1534,-12,16,-11,61,43,73
23370,89,-142,-3862,1523,-15,15,-10,61,43,73
23380,90,-131,-3830,1522,-14,12,-14,59,45,75
23390,91,-138,-3853,1499,-16,7,-15,59,45,75
23400,92,-155,-3878,1512,-15,8,-21,64,40,72
23410,93,-179,-3852,1470,-10,6,-22,64,40,72
23420,94,-171,-3898,1515,-18,3,-19,57,43,71
23430,95,-147,-3881,1536,-21,5,-22,57,43,71
23440,96,-145,-3894,1503,-20,4,-18,64,44,70
23450,97,-163,-3885,1510,-18,3,-12,64,44,70
23460,98,-122,-3894,1535,-13,1,-10,62,44,72
23470,99,-104,-3898,1474,-9,1,-2,62,44,72
23480,100,-127,-3859,1500,-11,3,-4,66,46,74
23490,101,-138,-3906,1479,-15,-1,-6,66,46,74
23500,102,-139,-3890,1489,-15,-3,-7,61,41,75
23510,103,-106,-3859,1466,-10,-3,-10,61,41,75
23520,104,-127,-3892,1523,-10,1,-14,61,39,73
23530,105,-120,-3841,1496,-15,1,-16,61,39,73
23540,106,-113,-3859,1515,-17,4,-19,61,43,69
23550,107,-98,-3878,1500,-15,4,-19,61,43,69
23560,108,-90,-3845,1496,-16,6,-18,64,46,72
23570,109,-107,-3896,1520,-9,4,-15,64,46,72
23580,110,-136,-3892,1460,-11,9,-12,63,41,77
23590,111,-120,-3885,1480,-12,13,-9,63,41,77
23600,112,-129,-3889,1511,-10,14,-9,62,44,72
23610,113,-152,-3866,1475,-9,12,-11,62,44,72
23620,114,-162,-3886,1503,-9,12,-12,65,41,65
23630,115,-135,-3831,1500,-11,14,-18,65,41,65
23640,116,-140,-3873,1536,-11,13,-20,56,42,70
23650,117,-125,-3856,1488,-14,11,-17,56,42,70
23660,118,-134,-3858,1514,-16,12,-20,63,43,71
23670,119,-120,-3868,1501,-13,13,-18,63,43,71
23680,120,-121,-3877,1474,-13,5,-15,62,44,76
23690,121,-141,-3918,1500,-16,5,-15,62,44,76
23700,122,-145,-3904,1470,-18,-2,-14,58,42,72
23710,123,-149,-3912,1498,-19,-6,-14,58,42,72
23720,124,-182,-3944,1511,-13,-11,-12,60,48,78
23730,125,-166,-3901,1490,-15,-15,-13,60,48,78
23740,126,-176,-3901,1493,-16,-13,-12,65,47,75
23750,127,-155,-3896,1523,-10,-9,-11,65,47,75
23760,128,-138,-3885,1504,-8,-2,-6,59,43,71
23770,129,-139,-3889,1487,-9,-1,-4,59,43,71
23780,130,-84,-3862,1487,-11,5,-4,65,43,67
23790,131,-87,-3869,1476,-2,12,-8,65,43,67
23800,132,-65,-3846,1517,-5,12,-13,62,40,66
23810,133,-58,-3840,1466,-7,9,-15,62,40,66
23820,134,-99,-3878,1459,-4,4,-22,63,43,65
23830,135,-90,-3881,1526,0,7,-21,63,43,65
23840,136,-131,-3887,1529,-7,14,-18,59,45,73
23850,137,-136,-3904,1515,-13,24,-21,59,45,73
23860,138,-125,-3871,1517,-18,30,-22,61,45,69
23870,139,-110,-3904,1476,-10,27,-27,61,45,69
23880,140,-149,-3887,1510,-16,22,-25,61,45,69
23890,141,-124,-3890,1514,-11,18,-21,61,45,69
23900,142,-163,-3897,1529,-4,17,-21,64,46,70
23910,143,-132,-3831,1494,-12,18,-17,64,46,70
23920,144,-149,-3857,1508,-16,17,-15,62,44,70
23930,145,-154,-3857,1483,-14,16,-16,62,44,70
23940,146,-131,-3868,1516,-16,16,-13,58,46,70
23950,147,-145,-3892,1507,-15,12,-18,58,46,70
23960,148,-144,-3871,1548,-12,16,-16,63,43,69
23970,149,-152,-3910,1508,-13,15,-16,63,43,69
23980,150,-118,-3869,1479,-15,13,-11,67,41,75
23990,151,-136,-3861,1495,-12,13,-15,67,41,75
24000,152,-146,-3891,1524,-12,7,-11,65,47,77
24010,153,-146,-3861,1480,-8,2,-15,65,47,77
24020,154,-149,-3874,1545,-5,0,-17,61,43,71
24030,155,-154,-3864,1507,-5,-1,-15,61,43,71
24040,156,-164,-3843,1523,-15,-5,-18,59,43,71
24050,157,-137,-3880,1493,-17,-9,-17,59,43,71
24060,158,-150,-3849,1504,-14,-8,-16,65,39,67
24070,159,-121,-3874,1502,-8,1,-16,65,39,67
24080,160,-98,-3886,1500,-10,7,-15,66,40,66
24090,161,-92,-3885,1507,-1,11,-12,66,40,66
24100,162,-86,-3904,1504,-3,9,-11,58,40,70
24110,163,-121,-3865,1503,-3,11,-9,58,40,70
24120,164,-120,-3912,1504,-10,14,-12,60,46,76
24130,165,-110,-3872,1542,-8,19,-16,60,46,76
24140,166,-119,-3863,1508,-10,20,-18,62,44,74
24150,167,-118,-3863,1495,-15,19,-24,62,44,74
24160,168,-129,-3838,1492,-18,14,-25,61,45,73
24170,169,-153,-3859,1508,-14,9,-29,61,45,73
24180,170,-152,-3848,1519,-16,12,-24,62,40,72
24190,171,-135,-3887,1527,-19,18,-24,62,40,72
24200,172,-143,-3884,1532,-18,16,-21,60,44,72
24210,173,-121,-3872,1532,-20,18,-19,60,44,72
24220,174,-124,-3906,1476,-19,19,-15,64,42,70
24230,175,-102,-3888,1494,-22,18,-11,64,42,70
24240,176,-112,-3861,1481,-18,21,-10,63,41,69
24250,177,-105,-3890,1495,-15,17,-8,63,41,69
24260,178,-122,-3865,1522,-14,15,-11,62,44,68
24270,179,-139,-3885,1518,-18,11,-14,62,44,68
24280,180,-152,-3872,1521,-17,10,-21,62,40,70
24290,181,-160,-3870,1524,-20,11,-18,62,40,70
24300,182,-142,-3882,1528,-17,16,-22,62,46,66
24310,183,-138,-3843,1503,-17,8,-21,62,46,66
24320,184,-153,-3884,1479,-16,5,-19,62,46,70
24330,185,-141,-3846,1492,-17,-2,-16,62,46,70
24340,186,-161,-3877,1543,-18,0,-17,59,39,67
24350,187,-135,-3877,1526,-14,1,-11,59,39,67
24360,188,-121,-3878,1507,-16,7,-11,61,45,73
24370,189,-152,-3906,1524,-14,3,-9,61,45,73
24380,190,-137,-3876,1519,-16,3,-9,61,43,69
24390,191,-124,-3889,1516,-11,5,-10,61,43,69
24400,192,-128,-3902,1520,-12,8,-10,61,43,69
24410,193,-114,-3858,1496,-15,13,-13,61,43,69
24420,194,-132,-3871,1546,-14,3,-14,68,44,70
24430,195,-117,-3824,1533,-14,4,-15,68,44,70
24440,196,-146,-3843,1500,-21,3,-17,63,39,69
24450,197,-153,-3878,1469,-15,3,-16,63,39,69
24460,198,-139,-3862,1557,-19,5,-20,69,47,73
24470,199,-130,-3904,1520,-24,3,-19,69,47,73
24480,200,-125,-3883,1512,-20,-1,-15,66,44,68
24490,201,-126,-3887,1505,-17,7,-13,66,44,68
24500,202,-156,-3893,1516,-16,9,-12,62,42,68
24510,203,-109,-3860,1450,-21,11,-10,62,42,68
24520,204,-146,-3862,1487,-18,12,-9,60,40,74
24530,205,-133,-3843,1492,-19,7,-10,60,40,74
24540,206,-139,-3857,1545,-13,5,-9,63,39,69
24550,207,-129,-3860,1507,-18,1,-13,63,39,69
24560,208,-158,-3877,1516,-16,-3,-9,59,41,75
24570,209,-123,-3899,1506,-21,0,-13,59,41,75
24580,210,-140,-3889,1526,-21,4,-12,63,43,67
24590,211,-122,-3879,1525,-23,8,-14,63,43,67
24600,212,-107,-3906,1524,-19,13,-15,62,42,72
24610,213,-100,-3828,1478,-23,9,-14,62,42,72
24620,214,-125,-3879,1525,-15,2,-16,60,42,70
24630,215,-149,-3861,1492,-9,2,-14,60,42,70
24640,216,-179,-3875,1492,-12,1,-16,62,42,68
24650,217,-172,-3874,1472,-22,2,-13,62,42,68
24660,218,-169,-3881,1500,-22,1,-13,65,45,71
24670,219,-158,-3895,1470,-20,-4,-15,65,45,71
24680,220,-138,-3888,1495,-14,-2,-9,65,39,71
24690,221,-136,-3902,1546,-12,2,-8,65,39,71
24700,222,-117,-3885,1531,-16,5,-8,61,43,69
24710,223,-111,-3889,1507,-20,3,-10,61,43,69
24720,224,-78,-3861,1486,-14,2,-10,65,43,71
24730,225,-92,-3886,1492,-13,6,-10,65,43,71
24740,226,-104,-3844,1531,-8,11,-13,65,43,73
24750,227,-130,-3851,1482,-14,18,-15,65,43,73
24760,228,-112,-3869,1499,-23,21,-18,61,43,67
24770,229,-142,-3844,1468,-20,16,-19,61,43,67
24780,230,-162,-3887,1436,-21,12,-19,58,42,70
24790,231,-158,-3898,1503,-10,10,-22,58,42,70
24800,232,-169,-3878,1538,-13,7,-22,66,46,70
24810,233,-156,-3900,1537,-16,9,-22,66,46,70
24820,234,-135,-3884,1515,-20,6,-16,63,41,71
24830,235,-116,-3907,1549,-15,8,-12,63,41,71
24840,236,-122,-3887,1521,-22,9,-10,64,46,68
24850,237,-89,-3887,1491,-21,14,-9,64,46,68
24860,238,-114,-3868,1523,-19,16,-7,65,43,73
24870,239,-117,-3850,1542,-22,14,-8,65,43,73
24880,240,-123,-3835,1475,-18,13,-7,61,47,71
24890,241,-154,-3856,1480,-22,4,-10,61,47,71
24900,242,-164,-3859,1503,-25,0,-16,57,41,69
24910,243,-154,-3885,1510,-16,1,-17,57,41,69
24920,244,-130,-3871,1541,-22,2,-17,61,49,75
24930,245,-135,-3867,1505,-26,-4,-18,61,49,75
24940,246,-135,-3888,1501,-18,-4,-17,61,41,65
24950,247,-146,-3886,1470,-17,0,-17,61,41,65
24960,248,-117,-3914,1510,-22,5,-15,64,40,70
24970,249,-130,-3890,1485,-16,9,-12,64,40,70
24980,250,-143,-3881,1510,-17,13,-10,62,50,70
24990,251,-113,-3894,1514,-18,13,-6,62,50,70
25000,252,-110,-3865,1524,-19,12,-7,62,44,72
25010,253,-153,-3895,1507,-24,10,-10,62,44,72
25020,254,-117,-3873,1493,-18,1,-17,62,40,74
25030,255,-163,-3860,1467,-19,1,-20,62,40,74
25040,0,-163,-3877,1545,-20,1,-24,64,46,74
25050,1,-144,-3851,1520,-21,8,-22,64,46,74
25060,2,-133,-3874,1525,-23,12,-21,61,43,69
25070,3,-73,-3872,1493,-18,11,-21,61,43,69
25080,4,-130,-3884,1488,-21,13,-21,64,44,72
25090,5,-100,-3873,1495,-12,15,-17,64,44,72
25100,6,-129,-3882,1505,-14,15,-19,61,45,73
25110,7,-137,-3882,1507,-15,14,-13,61,45,73
25120,8,-155,-3840,1513,-17,16,-15,60,44,70
25130,9,-153,-3859,1500,-19,16,-15,60,44,70
25140,10,-159,-3870,1515,-23,14,-14,63,39,71
25150,11,-148,-3860,1460,-23,10,-14,63,39,71
25160,12,-143,-3876,1511,-24,9,-17,65,43,71
25170,13,-145,-3879,1475,-21,2,-14,65,43,71
25180,14,-168,-3906,1491,-17,2,-16,63,45,71
25190,15,-116,-3887,1485,-22,4,-16,63,45,71
25200,16,-129,-3855,1521,-22,10,-13,65,47,71
25210,17,-146,-3903,1512,-25,10,-14,65,47,71
25220,18,-138,-3881,1474,-25,11,-11,63,43,71
25230,19,-141,-3900,1477,-23,8,-13,63,43,71
25240,20,-121,-3915,1527,-19,8,-13,62,40,74
25250,21,-125,-3867,1470,-9,4,-13,62,40,74
25260,22,-155,-3920,1493,-10,-1,-14,61,43,71
25270,23,-143,-3902,1462,-7,-1,-13,61,43,71
25280,24,-145,-3915,1480,-9,-3,-11,59,39,77
25290,25,-142,-3878,1478,-10,-1,-12,59,39,77
25300,26,-116,-3860,1514,-13,1,-15,61,45,71
25310,27,-135,-3893,1497,-14,4,-17,61,45,71
25320,28,-98,-3853,1456,-15,4,-12,62,48,76
25330,29,-85,-3874,1498,-20,7,-16,62,48,76
25340,30,-100,-3864,1516,-19,14,-16,59,49,73
25350,31,-120,-3868,1498,-16,16,-12,59,49,73
25360,32,-142,-3903,1513,-12,16,-16,70,46,72
25370,33,-102,-3908,1510,-9,20,-15,70,46,72
25380,34,-143,-3874,1514,-12,21,-14,58,46,68
25390,35,-137,-3896,1460,-11,18,-17,58,46,68
25400,36,-148,-3887,1488,-13,16,-18,59,41,73
25410,37,-152,-3903,1488,-20,15,-22,59,41,73
25420,38,-139,-3877,1543,-21,9,-21,58,42,68
25430,39,-141,-3872,1510,-22,8,-19,58,42,68
25440,40,-125,-3870,1485,-18,9,-21,63,41,69
25450,41,-122,-3846,1536,-17,6,-20,63,41,69
25460,42,-116,-3885,1516,-16,8,-14,66,40,70
25470,43,-144,-3859,1488,-15,8,-13,66,40,70
25480,44,-164,-3883,1513,-20,12,-7,61,45,69
25490,45,-107,-3911,1528,-22,12,-10,61,45,69
25500,46,-138,-3889,1513,-11,6,-10,64,38,70
25510,47,-167,-3934,1501,-5,1,-10,64,38,70
25520,48,-140,-3896,1483,-4,-3,-10,62,44,72
25530,49,-147,-3908,1510,-8,-1,-11,62,44,72
25540,50,-109,-3856,1522,-8,-2,-10,68,42,74
25550,51,-118,-3879,1495,-3,1,-15,68,42,74
25560,52,-98,-3901,1512,-6,9,-18,62,42,72
25570,53,-83,-3861,1503,-15,7,-25,62,42,72
25580,54,-109,-3853,1485,-16,-1,-24,63,41,73
25590,55,-120,-3877,1479,-9,-7,-21,63,41,73
25600,56,-131,-3870,1501,-9,-7,-20,63,49,65
25610,57,-186,-3891,1494,-6,4,-17,63,49,65
25620,58,-148,-3874,1548,-8,11,-15,67,41,69
25630,59,-155,-3893,1525,-15,14,-14,67,41,69
25640,60,-117,-3899,1514,-18,15,-16,63,43,73
25650,61,-120,-3876,1478,-19,13,-19,63,43,73
25660,62,-114,-3920,1493,-15,12,-17,64,42,70
25670,63,-133,-3888,1498,-11,10,-18,64,42,70
25680,64,-139,-3877,1535,-14,12,-18,62,44,70
25690,65,-104,-3888,1487,-19,13,-17,62,44,70
25700,66,-119,-3826,1515,-18,15,-17,64,40,66
25710,67,-120,-3907,1504,-13,11,-15,64,40,66
25720,68,-143,-3878,1542,-4,3,-15,63,43,75
25730,69,-149,-3899,1543,-6,2,-17,63,43,75
25740,70,-171,-3917,1544,-11,4,-15,60,40,72
25750,71,-143,-3896,1512,-19,9,-13,60,40,72
25760,72,-131,-3874,1537,-20,15,-13,63,45,75
25770,73,-115,-3855,1513,-17,15,-13,63,45,75
25780,74,-144,-3859,1511,-14,19,-11,65,43,69
25790,75,-130,-3885,1526,-15,15,-11,65,43,69
25800,76,-96,-3847,1491,-16,14,-11,59,45,73
25810,77,-125,-3868,1466,-13,9,-14,59,45,73
25820,78,-134,-3875,1516,-4,8,-13,66,44,72
25830,79,-164,-3898,1507,-6,3,-14,66,44,72
25840,80,-138,-3888,1488,-8,5,-14,62,40,66
25850,81,-168,-3858,1500,-14,5,-16,62,40,66
25860,82,-144,-3896,1521,-10,8,-17,65,47,71
25870,83,-134,-3868,1534,-11,13,-16,65,47,71
25880,84,-111,-3862,1542,-12,12,-14,62,46,76
25890,85,-121,-3882,1520,-14,12,-16,62,46,76
25900,86,-103,-3853,1497,-19,16,-12,65,43,69
25910,87,-131,-3893,1481,-9,11,-14,65,43,69
25920,88,-117,-3878,1551,-3,14,-15,64,44,76
25930,89,-129,-3869,1528,-6,14,-15,64,44,76
25940,90,-126,-3877,1522,-13,16,-14,62,46,76
25950,91,-134,-3869,1507,-14,13,-15,62,46,76
25960,92,-116,-3902,1506,-19,9,-15,61,43,75
25970,93,-125,-3843,1516,-14,6,-18,61,43,75
25980,94,-173,-3844,1501,-10,6,-19,64,48,70
25990,95,-151,-3879,1523,-12,4,-13,64,48,70
26000,96,-130,-3860,1506,-13,4,-14,62,40,72
26010,97,-131,-3868,1491,-19,6,-13,62,40,72
26020,98,-138,-3843,1482,-20,8,-16,64,44,72
26030,99,-150,-3868,1494,-19,9,-14,64,44,72
26040,100,-110,-3887,1520,-16,14,-16,62,48,76
26050,101,-118,-3851,1458,-10,15,-13,62,48,76
26060,102,-98,-3861,1489,-11,17,-18,61,39,71
26070,103,-115,-3856,1477,-17,16,-21,61,39,71
26080,104,-157,-3866,1508,-16,13,-21,62,40,68
26090,105,-134,-3872,1507,-16,10,-18,62,40,68
26100,106,-140,-3892,1525,-16,9,-17,61,43,73
26110,107,-152,-3895,1514,-18,6,-18,61,43,73
26120,108,-164,-3900,1524,-16,8,-18,61,45,67
26130,109,-141,-3868,1489,-19,1,-20,61,45,67
26140,110,-162,-3879,1498,-18,0,-20,68,42,70
26150,111,-142,-3893,1518,-20,0,-18,68,42,70
26160,112,-139,-3838,1506,-22,3,-16,63,41,71
26170,113,-136,-3879,1512,-18,9,-12,63,41,71
26180,114,-103,-3887,1524,-15,15,-8,63,37,75
26190,115,-106,-3877,1517,-18,13,-9,63,37,75
26200,116,-129,-3894,1513,-24,10,-10,59,43,71
26210,117,-113,-3858,1512,-16,6,-11,59,43,71
26220,118,-140,-3882,1509,-15,7,-14,65,41,67
26230,119,-141,-3863,1469,-17,4,-13,65,41,67
26240,120,-154,-3835,1518,-21,5,-15,61,43,69
26250,121,-129,-3888,1493,-32,5,-18,61,43,69
26260,122,-121,-3840,1508,-29,9,-18,62,46,68
26270,123,-138,-3885,1530,-21,5,-16,62,46,68
26280,124,-131,-3896,1522,-19,1,-15,58,44,68
26290,125,-143,-3914,1507,-19,1,-14,58,44,68
26300,126,-152,-3901,1493,-18,3,-12,66,48,72
26310,127,-127,-3866,1501,-19,0,-11,66,48,72
26320,128,-150,-3899,1469,-9,5,-12,65,49,71
26330,129,-122,-3876,1500,-11,4,-9,65,49,71
26340,130,-147,-3865,1464,-15,-2,-14,62,46,68
26350,131,-139,-3891,1540,-18,-1,-12,62,46,68
26360,132,-130,-3856,1525,-14,0,-9,58,38,76
26370,133,-135,-3900,1514,-13,4,-9,58,38,76
26380,134,-118,-3895,1476,-11,9,-10,63,41,71
26390,135,-115,-3859,1508,-9,13,-8,63,41,71
26400,136,-112,-3904,1510,-8,13,-11,57,39,75
26410,137,-105,-3873,1495,-2,18,-13,57,39,75
26420,138,-108,-3882,1549,-9,14,-15,60,38,66
26430,139,-123,-3840,1489,-12,17,-18,60,38,66
26440,140,-130,-3846,1506,-17,19,-19,61,43,67
26450,141,-134,-3860,1482,-21,22,-19,61,43,67
26460,142,-150,-3857,1495,-20,23,-22,60,48,74
26470,143,-145,-3853,1488,-23,21,-28,60,48,74
26480,144,-132,-3903,1498,-24,15,-26,63,41,73
26490,145,-162,-3885,1505,-22,15,-24,63,41,73
26500,146,-158,-3892,1475,-23,12,-21,57,45,71
26510,147,-129,-3879,1534,-21,15,-17,57,45,71
26520,148,-140,-3893,1522,-18,18,-14,62,42,76
26530,149,-136,-3851,1516,-22,19,-13,62,42,76
26540,150,-105,-3867,1494,-25,17,-12,63,41,65
26550,151,-132,-3866,1467,-31,9,-15,63,41,65
26560,152,-138,-3863,1499,-24,5,-16,59,45,71
26570,153,-152,-3875,1539,-20,2,-19,59,45,71
26580,154,-149,-3881,1472,-18,2,-21,61,47,73
26590,155,-141,-3871,1452,-19,0,-20,61,47,73
26600,156,-159,-3901,1522,-22,-5,-17,67,37,73
26610,157,-122,-3888,1497,-22,3,-14,67,37,73
26620,158,-137,-3895,1496,-20,3,-16,60,42,72
26630,159,-88,-3908,1485,-16,0,-15,60,42,72
26640,160,-125,-3872,1518,-23,-7,-12,64,42,72
26650,161,-118,-3901,1491,-19,-11,-11,64,42,72
26660,162,-90,-3864,1528,-14,-9,-13,63,41,71
26670,163,-113,-3885,1549,-8,2,-17,63,41,71
26680,164,-130,-3870,1518,-15,6,-16,63,45,71
26690,165,-126,-3865,1525,-12,10,-14,63,45,71
26700,166,-129,-3895,1508,-25,14,-17,59,43,73
26710,167,-146,-3858,1506,-26,19,-15,59,43,73
26720,168,-122,-3884,1539,-20,20,-13,66,46,70
26730,169,-135,-3883,1505,-23,15,-14,66,46,70
26740,170,-121,-3860,1524,-17,14,-14,62,42,70
26750,171,-143,-3923,1516,-19,8,-17,62,42,70
26760,172,-112,-3858,1459,-20,4,-18,63,43,73
26770,173,-147,-3913,1508,-18,4,-18,63,43,73
26780,174,-136,-3909,1518,-18,8,-22,69,41,73
26790,175,-147,-3868,1496,-19,8,-18,69,41,73
26800,176,-161,-3883,1487,-22,9,-18,62,42,70
26810,177,-142,-3885,1529,-24,16,-13,62,42,70
26820,178,-155,-3900,1481,-24,15,-12,62,44,70
26830,179,-136,-3876,1484,-21,19,-8,62,44,70
26840,180,-119,-3873,1499,-16,12,-6,60,40,72
26850,181,-138,-3873,1480,-15,8,-10,60,40,72
26860,182,-129,-3859,1499,-21,6,-8,59,39,71
26870,183,-156,-3881,1471,-20,9,-10,59,39,71
26880,184,-136,-3887,1468,-24,7,-12,65,47,65
26890,185,-126,-3861,1504,-23,8,-15,65,47,65
26900,186,-126,-3882,1483,-25,3,-19,61,39,67
26910,187,-126,-3854,1487,-17,0,-16,61,39,67
26920,188,-124,-3847,1510,-20,4,-19,61,41,73
26930,189,-122,-3875,1528,-22,12,-20,61,41,73
26940,190,-129,-3872,1483,-28,13,-16,64,40,70
26950,191,-118,-3903,1481,-26,14,-18,64,40,70
26960,192,-107,-3871,1505,-21,14,-17,61,45,71
26970,193,-129,-3892,1479,-22,13,-15,61,45,71
26980,194,-129,-3891,1478,-16,9,-11,60,42,70
26990,195,-112,-3874,1551,-15,14,-10,60,42,70
27000,196,-156,-3898,1494,-17,12,-8,64,42,70
27010,197,-145,-3864,1483,-17,11,-10,64,42,70
27020,198,-158,-3909,1504,-20,4,-13,62,44,70
27030,199,-116,-3885,1516,-22,8,-11,62,44,70
27040,200,-136,-3855,1492,-20,12,-14,61,43,63
27050,201,-114,-3890,1456,-20,11,-14,61,43,63
27060,202,-111,-3861,1512,-20,10,-18,66,42,66
27070,203,-106,-3886,1466,-19,8,-20,66,42,66
27080,204,-139,-3855,1521,-14,7,-14,62,42,72
27090,205,-126,-3867,1506,-10,9,-16,62,42,72
27100,206,-159,-3886,1489,-19,13,-16,66,46,72
27110,207,-150,-3876,1472,-17,14,-16,66,46,72
27120,208,-138,-3902,1495,-23,14,-14,60,44,70
27130,209,-153,-3873,1518,-23,10,-11,60,44,70
27140,210,-134,-3863,1474,-10,5,-13,59,41,73
27150,211,-153,-3916,1477,-12,2,-9,59,41,73
27160,212,-166,-3878,1504,-8,2,-16,63,41,71
27170,213,-136,-3868,1489,-14,1,-10,63,41,71
27180,214,-124,-3885,1518,-17,5,-11,62,42,72
27190,215,-111,-3865,1478,-17,6,-16,62,42,72
27200,216,-126,-3894,1493,-14,8,-12,62,46,74
27210,217,-111,-3864,1493,-9,7,-11,62,46,74
27220,218,-116,-3871,1480,-8,7,-16,66,48,72
27230,219,-103,-3891,1471,-4,6,-17,66,48,72
27240,220,-139,-3878,1481,-8,3,-17,59,45,69
27250,221,-168,-3888,1467,-13,2,-20,59,45,69
27260,222,-164,-3865,1512,-15,3,-17,61,41,75
27270,223,-149,-3866,1486,-15,8,-16,61,41,75
27280,224,-138,-3895,1508,-22,12,-13,64,46,68
27290,225,-127,-3856,1497,-18,14,-10,64,46,68
27300,226,-129,-3893,1479,-16,13,-12,63,45,69
27310,227,-127,-3867,1490,-11,13,-12,63,45,69
27320,228,-135,-3889,1511,-17,10,-15,63,47,73
27330,229,-138,-3872,1473,-20,6,-18,63,47,73
27340,230,-128,-3851,1454,-17,5,-18,62,42,70
27350,231,-136,-3866,1511,-24,7,-21,62,42,70
27360,232,-156,-3891,1468,-23,7,-22,64,40,70
27370,233,-167,-3885,1469,-21,7,-15,64,40,70
27380,234,-139,-3905,1474,-18,9,-11,63,43,75
27390,235,-135,-3874,1491,-18,11,-12,63,43,75
27400,236,-144,-3939,1530,-15,11,-11,65,41,73
27410,237,-139,-3909,1517,-12,13,-10,65,41,73
27420,238,-113,-3882,1500,-9,9,-12,61,45,73
27430,239,-144,-3873,1498,-15,5,-16,61,45,73
27440,240,-148,-3855,1488,-20,2,-14,65,43,73
27450,241,-146,-3844,1480,-16,6,-15,65,43,73
27460,242,-128,-3872,1506,-10,10,-12,61,45,69
27470,243,-171,-3849,1502,-15,10,-17,61,45,69
27480,244,-161,-3898,1489,-13,5,-11,64,40,70
27490,245,-162,-3879,1473,-20,6,-14,64,40,70
27500,246,-151,-3875,1536,-17,2,-15,64,46,66
27510,247,-136,-3883,1497,-18,-1,-13,64,46,66
27520,248,-128,-3874,1495,-12,0,-14,64,36,70
27530,249,-129,-3893,1468,-14,1,-13,64,36,70
27540,250,-111,-3874,1496,-17,2,-12,68,42,72
27550,251,-148,-3891,1496,-13,7,-13,68,42,72
27560,252,-105,-3871,1510,-16,11,-13,56,46,74
27570,253,-147,-3897,1473,-14,13,-13,56,46,74
27580,254,-144,-3903,1515,-9,9,-14,59,41,73
27590,255,-148,-3889,1497,-9,9,-18,59,41,73
27600,0,-143,-3892,1512,-8,9,-14,62,36,66
27610,1,-154,-3896,1506,-8,12,-14,62,36,66
27620,2,-124,-3857,1527,-10,14,-14,64,42,72
27630,3,-141,-3875,1514,-8,15,-18,64,42,72
27640,4,-121,-3862,1497,-15,12,-18,65,39,71
27650,5,-104,-3857,1472,-12,8,-19,65,39,71
27660,6,-116,-3879,1488,-14,9,-18,61,43,71
27670,7,-133,-3879,1504,-11,13,-19,61,43,71
27680,8,-136,-3867,1485,-9,15,-18,58,44,68
27690,9,-151,-3865,1512,-17,16,-15,58,44,68
27700,10,-143,-3898,1513,-14,18,-15,62,44,70
27710,11,-129,-3879,1526,-12,15,-13,62,44,70
27720,12,-114,-3881,1522,-10,15,-10,62,42,74
27730,13,-137,-3887,1472,-7,11,-15,62,42,74
27740,14,-139,-3883,1513,-10,9,-16,63,45,69
27750,15,-139,-3863,1483,-9,9,-14,63,45,69
27760,16,-129,-3883,1476,-14,2,-15,64,44,72
27770,17,-140,-3881,1488,-12,4,-18,64,44,72
27780,18,-133,-3899,1525,-9,0,-20,60,40,72
27790,19,-175,-3912,1550,-10,5,-19,60,40,72
27800,20,-128,-3864,1485,-8,5,-18,66,40,76
27810,21,-122,-3854,1480,-7,7,-17,66,40,76
27820,22,-111,-3898,1497,-10,8,-9,66,38,72
27830,23,-125,-3871,1499,-13,12,-13,66,38,72
27840,24,-115,-3886,1505,-11,10,-14,62,44,68
27850,25,-128,-3852,1468,-6,7,-12,62,44,68
27860,26,-129,-3879,1505,-15,8,-13,59,35,75
27870,27,-112,-3898,1527,-14,8,-16,59,35,75
27880,28,-127,-3876,1508,-17,12,-15,61,39,71
27890,29,-111,-3876,1490,-19,12,-17,61,39,71
27900,30,-127,-3879,1476,-20,11,-15,60,42,74
27910,31,-121,-3871,1514,-16,8,-16,60,42,74
27920,32,-167,-3881,1487,-18,7,-21,62,42,72
27930,33,-160,-3868,1501,-14,6,-21,62,42,72
27940,34,-155,-3908,1504,-16,5,-20,65,47,71
27950,35,-137,-3868,1504,-18,5,-18,65,47,71
27960,36,-151,-3903,1516,-16,9,-19,61,45,69
27970,37,-145,-3899,1489,-15,11,-14,61,45,69
27980,38,-147,-3883,1490,-11,11,-13,60,42,72
27990,39,-111,-3890,1479,-9,5,-11,60,42,72
28000,40,-141,-3872,1515,-10,5,-14,64,38,70
28010,41,-128,-3892,1484,-11,4,-12,64,38,70
28020,42,-138,-3875,1480,-4,10,-13,62,42,74
28030,43,-119,-3862,1478,-1,15,-17,62,42,74
28040,44,-117,-3873,1462,-5,16,-18,65,41,73
28050,45,-97,-3860,1458,-10,10,-19,65,41,73
28060,46,-124,-3850,1482,-8,7,-19,61,43,73
28070,47,-129,-3848,1481,-9,7,-17,61,43,73
28080,48,-125,-3829,1509,-16,14,-18,62,40,72
28090,49,-141,-3869,1476,-17,19,-16,62,40,72
28100,50,-122,-3855,1460,-16,14,-17,65,45,71
28110,51,-120,-3881,1445,-10,11,-20,65,45,71
28120,52,-113,-3877,1510,-13,12,-18,63,43,69
28130,53,-119,-3891,1473,-17,14,-20,63,43,69
28140,54,-152,-3877,1499,-14,15,-20,59,39,73
28150,55,-147,-3888,1492,-12,12,-17,59,39,73
28160,56,-128,-3906,1514,-18,10,-18,61,43,71
28170,57,-143,-3888,1514,-13,9,-16,61,43,71
28180,58,-122,-3882,1504,-13,7,-17,64,42,74
28190,59,-140,-3889,1499,-12,5,-21,64,42,74
28200,60,-150,-3871,1509,-7,1,-18,65,45,69
28210,61,-147,-3876,1478,-16,-2,-16,65,45,69
28220,62,-149,-3881,1497,-13,-6,-14,70,40,68
28230,63,-140,-3874,1511,-15,-4,-12,70,40,68
28240,64,-150,-3855,1520,-22,2,-11,64,40,72
28250,65,-122,-3889,1510,-14,12,-10,64,40,72
28260,66,-108,-3880,1542,-12,13,-12,68,42,70
28270,67,-131,-3895,1479,-5,8,-12,68,42,70
28280,68,-115,-3869,1504,-2,6,-14,64,46,76
28290,69,-118,-3917,1513,-6,1,-14,64,46,76
28300,70,-115,-3873,1524,-8,0,-15,64,40,76
28310,71,-131,-3874,1522,-4,0,-15,64,40,76
28320,72,-129,-3895,1516,-8,4,-16,60,46,70
28330,73,-132,-3854,1510,-14,4,-12,60,46,70
28340,74,-138,-3883,1496,-19,12,-16,62,42,74
28350,75,-115,-3850,1491,-15,14,-16,62,42,74
28360,76,-140,-3856,1523,-14,14,-17,57,41,69
28370,77,-107,-3879,1530,-13,15,-17,57,41,69
28380,78,-105,-3886,1504,-10,14,-20,57,47,73
28390,79,-132,-3921,1530,-14,17,-21,57,47,73
28400,80,-135,-3876,1516,-15,16,-19,60,44,70
28410,81,-137,-3907,1507,-10,18,-19,60,44,70
28420,82,-168,-3876,1526,-19,10,-15,61,41,71
28430,83,-129,-3858,1493,-17,9,-16,61,41,71
28440,84,-131,-3896,1485,-10,1,-15,64,40,74
28450,85,-133,-3872,1495,-14,2,-14,64,40,74
28460,86,-147,-3857,1524,-14,10,-13,59,41,69
28470,87,-141,-3890,1464,-15,16,-15,59,41,69
28480,88,-114,-3866,1503,-18,19,-14,63,43,73
28490,89,-125,-3889,1534,-11,15,-16,63,43,73
28500,90,-106,-3854,1495,-11,10,-17,65,37,77
28510,91,-128,-3874,1511,-12,8,-18,65,37,77
28520,92,-150,-3888,1518,-13,8,-15,64,44,68
28530,93,-125,-3870,1501,-14,7,-15,64,44,68
28540,94,-149,-3886,1525,-11,7,-15,57,41,75
28550,95,-134,-3854,1509,-16,10,-18,57,41,75
28560,96,-145,-3857,1522,-16,11,-18,63,49,73
28570,97,-119,-3877,1515,-15,10,-13,63,49,73
28580,98,-131,-3855,1517,-9,9,-17,59,39,69
28590,99,-129,-3883,1535,-7,9,-15,59,39,69
28600,100,-108,-3903,1517,-10,11,-14,65,47,73
28610,101,-142,-3909,1515,-11,12,-11,65,47,73
28620,102,-117,-3894,1542,-14,13,-16,62,44,70
28630,103,-125,-3861,1517,-13,14,-13,62,44,70
28640,104,-104,-3874,1481,-11,12,-16,64,44,72
28650,105,-133,-3839,1492,-17,10,-17,64,44,72
28660,106,-136,-3845,1517,-19,12,-17,61,45,73
28670,107,-125,-3869,1480,-20,10,-18,61,45,73
28680,108,-142,-3862,1516,-19,9,-20,64,42,72
28690,109,-161,-3911,1453,-16,6,-18,64,42,72
28700,110,-131,-3882,1520,-24,7,-15,62,42,74
28710,111,-118,-3916,1544,-21,3,-16,62,42,74
28720,112,-129,-3899,1541,-15,4,-13,58,40,72
28730,113,-106,-3876,1459,-12,4,-12,58,40,72
28740,114,-107,-3900,1523,-9,10,-14,61,41,73
28750,115,-114,-3882,1518,-13,12,-14,61,41,73
28760,116,-142,-3875,1509,-9,9,-15,66,44,66
28770,117,-133,-3876,1528,-13,6,-17,66,44,66
28780,118,-148,-3861,1524,-13,0,-17,62,38,72
28790,119,-118,-3882,1499,-10,0,-14,62,38,72
28800,120,-154,-3906,1489,-3,2,-15,70,42,72
28810,121,-151,-3889,1495,-7,-1,-14,70,42,72
28820,122,-121,-3902,1480,-7,5,-15,55,45,75
28830,123,-123,-3870,1505,-9,4,-15,55,45,75
28840,124,-95,-3887,1496,-14,9,-17,59,45,71
28850,125,-120,-3877,1527,-16,12,-18,59,45,71
28860,126,-122,-3858,1520,-11,13,-16,62,44,70
28870,127,-94,-3855,1496,-15,13,-17,62,44,70
28880,128,-97,-3837,1517,-18,12,-20,55,41,71
28890,129,-143,-3847,1518,-13,12,-16,55,41,71
28900,130,-140,-3849,1496,-16,13,-17,66,46,72
28910,131,-136,-3882,1515,-18,9,-20,66,46,72
28920,132,-154,-3881,1522,-22,12,-17,63,45,69
