AccFullScale=8g, GyrFullScale=2000dps, SamplingRate=100Hz, PacketType=RAW
timeStamp,packetCounter, AccX,AccY,AccZ, GyrX,GyrY,GyrZ, MagX,MagY,MagZ 
  2000,0,-785,-3393,1263,115,-18,-176,66,50,82
2010,1,-818,-3244,1152,199,-78,-202,66,50,82
2020,2,-822,-3149,1123,221,-155,-190,-57,45,49
2030,3,-929,-3060,1179,241,-196,-147,-57,45,49
2040,4,-976,-3017,1191,239,-258,-75,-62,42,46
2050,5,-1089,-2937,1235,261,-270,-5,-62,42,46
2060,6,-1030,-2902,1183,281,-267,72,-63,45,49
2070,7,-854,-2720,1129,297,-237,125,-63,45,49
2080,8,-761,-2596,1041,327,-263,161,-58,48,46
2090,9,-643,-2490,886,305,-306,178,-58,48,46
2100,10,-587,-2378,958,192,-318,175,-62,50,46
2110,11,-445,-2426,819,21,-370,148,-62,50,46
2120,12,-299,-2496,747,-151,-448,95,-58,46,48
2130,13,-261,-2632,647,-249,-571,11,-58,46,48
2140,14,-295,-2903,672,-265,-654,-78,-61,49,49
2150,15,-195,-3056,604,-155,-710,-161,-61,49,49
2160,16,-171,-3136,705,37,-677,-224,-69,49,51
2170,17,-112,-3177,703,288,-647,-253,-69,49,51
2180,18,-146,-3231,689,555,-641,-245,-62,48,48
2190,19,-203,-3247,681,799,-725,-204,-62,48,48
2200,20,-444,-3059,808,903,-679,-170,-63,45,49
2210,21,-582,-3069,630,964,-719,-127,-63,45,49
2220,22,-813,-2986,745,911,-696,-75,-69,47,49
2230,23,-733,-2951,777,715,-666,-30,-69,47,49
2240,24,-709,-3108,1034,467,-595,-8,-59,45,49
2250,25,-599,-3193,1135,283,-656,3,-59,45,49
2260,26,-374,-3491,1244,94,-679,6,-67,47,47
2270,27,-112,-3790,1304,-46,-648,0,-67,47,47
2280,28,169,-4128,1249,-213,-527,-10,-66,44,48
2290,29,422,-4540,1119,-357,-376,-13,-66,44,48
2300,30,651,-4880,847,-419,-242,7,-64,48,40
2310,31,694,-5073,551,-354,-178,51,-64,48,40
2320,32,606,-5208,387,-232,-121,100,-71,47,47
2330,33,388,-5193,-38,-50,-188,132,-71,47,47
2340,34,128,-5245,-323,210,-301,145,-67,47,49
2350,35,-414,-5231,-583,415,-497,141,-67,47,49
2360,36,-1134,-5230,-804,491,-679,131,-68,42,52
2370,37,-1740,-4913,-172,176,-676,113,-68,42,52
2380,38,-2102,-4183,1361,-522,-687,104,-64,46,48
2390,39,-1983,-3916,2803,-1218,-742,165,-64,46,48
2400,40,-1149,-4536,4547,-2037,-478,406,-65,49,51
2410,41,1238,-6028,3175,-2798,-52,878,-65,49,51
2420,42,2852,-6824,2170,-1953,228,1291,-70,46,56
2430,43,3537,-6629,5631,-1033,932,1472,-70,46,56
2440,44,4305,-5808,4823,-708,1519,1573,-61,53,63
2450,45,3299,-3144,1603,-104,1964,1455,-61,53,63
2460,46,1712,-2436,2174,-78,1343,1079,-56,54,58
2470,47,-81,-3485,3321,-169,522,499,-56,54,58
2480,48,-1003,-5166,3328,-358,203,61,-59,57,61
2490,49,-2170,-7096,2548,-670,-49,-10,-59,57,61
2500,50,-3022,-7521,1792,-79,91,11,-52,56,60
2510,51,-3154,-6617,2062,489,145,-78,-52,56,60
2520,52,-2400,-5409,2562,568,-13,-88,-51,55,61
2530,53,-1070,-4796,2453,436,-74,-36,-51,55,61
2540,54,23,-4523,2102,224,-91,-9,-47,55,55
2550,55,780,-4573,1631,178,-88,-2,-47,55,55
2560,56,898,-4260,1242,408,40,29,-52,52,56
2570,57,785,-3876,1288,678,245,60,-52,52,56
2580,58,517,-3479,1453,685,341,63,-49,49,59
2590,59,429,-3266,1307,656,474,28,-49,49,59
2600,60,393,-3048,1328,661,510,-35,-51,51,57
2610,61,257,-2799,1405,523,495,-106,-51,51,57
2620,62,99,-2670,1444,304,410,-170,-49,49,53
2630,63,-9,-2578,1238,151,393,-245,-49,49,53
2640,64,5,-2546,1130,116,359,-313,-52,48,50
2650,65,-108,-2435,1108,142,347,-355,-52,48,50
2660,66,-34,-2308,1075,189,306,-398,-50,56,50
2670,67,-94,-2201,1033,231,303,-429,-50,56,50
2680,68,-90,-2195,945,279,282,-424,-53,49,51
2690,69,-76,-2109,798,316,216,-385,-53,49,51
2700,70,-210,-1956,799,264,172,-317,-55,55,45
2710,71,-304,-1931,781,170,155,-210,-55,55,45
2720,72,-360,-1949,830,77,193,-96,-53,51,53
2730,73,-391,-2139,858,10,242,22,-53,51,53
2740,74,-263,-2335,897,-31,354,135,-56,48,50
2750,75,-66,-2571,837,-28,399,224,-56,48,50
2760,76,95,-2885,922,11,416,286,-54,44,48
2770,77,275,-3163,779,113,437,302,-54,44,48
2780,78,362,-3554,777,307,439,295,-50,48,46
2790,79,336,-3935,787,576,424,281,-50,48,46
2800,80,252,-4183,771,969,543,261,-52,52,56
2810,81,235,-4259,769,1340,652,228,-52,52,56
2820,82,263,-4106,790,1417,719,186,-55,49,45
2830,83,125,-3937,767,1194,729,139,-55,49,45
2840,84,0,-3747,765,875,796,97,-49,45,41
2850,85,-71,-3735,788,678,790,63,-49,45,41
2860,86,-375,-3651,939,595,706,0,-46,48,44
2870,87,-679,-3665,1207,426,517,-73,-46,48,44
2880,88,-960,-3828,1390,119,386,-146,-47,47,35
2890,89,-1096,-4011,1385,-221,263,-196,-47,47,35
2900,90,-1071,-4191,1297,-478,202,-229,-44,48,34
2910,91,-983,-4454,996,-555,182,-240,-44,48,34
2920,92,-812,-4645,670,-458,170,-246,-47,47,37
2930,93,-596,-4758,463,-274,167,-259,-47,47,37
2940,94,-284,-4744,283,-61,151,-279,-47,53,37
2950,95,-108,-4769,233,227,134,-274,-47,53,37
2960,96,81,-4691,385,282,196,-234,-47,55,39
2970,97,209,-4444,1304,75,212,-186,-47,55,39
2980,98,104,-4364,2780,-430,317,-254,-47,43,33
2990,99,3,-4764,3686,-1474,602,-509,-47,43,33
3000,100,-530,-5138,3482,-2559,453,-828,-46,46,38
3010,101,-1895,-5697,2799,-2419,-57,-1055,-46,46,38
3020,102,-2824,-7032,2362,-2165,-790,-1294,-55,49,41
3030,103,-2618,-6164,1444,-1319,-1396,-1315,-55,49,41
3040,104,-2064,-4471,932,-303,-1774,-1054,-52,50,44
3050,105,-1509,-3295,2000,-20,-1640,-783,-52,50,44
3060,106,-809,-2510,3308,-57,-831,-555,-55,47,55
3070,107,-502,-3379,3035,-230,-39,-372,-55,47,55
3080,108,-449,-4537,1683,-358,-74,-267,-59,51,51
3090,109,-204,-5951,2256,-574,-129,-209,-59,51,51
3100,110,657,-6841,1768,-512,-104,-100,-58,48,52
3110,111,1324,-7002,1842,-20,-134,-12,-58,48,52
3120,112,1334,-5978,2162,243,38,71,-60,50,58
3130,113,943,-5004,2092,211,199,113,-60,50,58
3140,114,467,-4680,1691,127,234,61,-64,50,46
3150,115,67,-4268,1620,157,253,1,-64,50,46
3160,116,-310,-3745,1739,146,336,-32,-61,49,49
3170,117,-442,-3505,1632,86,408,-120,-61,49,49
3180,118,-540,-3414,1581,10,424,-217,-64,46,52
3190,119,-595,-3567,1386,36,389,-278,-64,46,52
3200,120,-626,-3541,1325,111,306,-288,-60,40,52
3210,121,-649,-3496,1273,250,221,-257,-60,40,52
3220,122,-730,-3373,1193,404,139,-192,-59,47,45
3230,123,-932,-3111,1208,463,17,-89,-59,47,45
3240,124,-988,-2914,1211,451,-14,9,-56,44,52
3250,125,-984,-2654,1182,445,-29,97,-56,44,52
3260,126,-918,-2491,1169,451,-50,156,-56,46,50
3270,127,-951,-2225,1133,427,-103,181,-56,46,50
3280,128,-849,-1991,1133,374,-141,187,-61,39,47
3290,129,-758,-2004,991,279,-247,170,-61,39,47
3300,130,-687,-1854,772,187,-311,138,-59,47,45
3310,131,-591,-1854,699,64,-358,104,-59,47,45
3320,132,-421,-1970,666,-84,-397,49,-59,47,47
3330,133,-299,-2195,602,-197,-430,-44,-59,47,47
3340,134,-165,-2516,456,-209,-481,-158,-61,43,47
3350,135,-85,-2769,434,-106,-547,-266,-61,43,47
3360,136,-39,-3020,332,88,-642,-342,-58,48,44
3370,137,-70,-3192,337,396,-750,-373,-58,48,44
3380,138,-198,-3236,445,688,-751,-354,-64,42,52
3390,139,-288,-3258,458,886,-848,-285,-64,42,52
3400,140,-623,-3130,487,923,-881,-190,-64,46,46
3410,141,-715,-3163,466,895,-927,-80,-64,46,46
3420,142,-909,-3430,785,736,-806,-6,-62,42,46
3430,143,-974,-3712,1291,446,-649,41,-62,42,46
3440,144,-704,-3966,1408,144,-571,46,-61,43,47
3450,145,-503,-4336,1500,-117,-511,50,-61,43,47
3460,146,-84,-4557,1433,-261,-408,62,-62,44,44
3470,147,282,-4772,1075,-273,-189,67,-62,44,44
3480,148,741,-4955,473,-307,-12,84,-64,42,48
3490,149,1086,-5048,43,-303,85,87,-64,42,48
3500,150,1080,-5173,-153,-141,38,83,-60,44,44
3510,151,717,-5190,-47,100,-158,57,-60,44,44
3520,152,143,-5375,13,369,-419,30,-67,45,49
3530,153,-766,-5539,-110,528,-699,25,-67,45,49
3540,154,-1577,-5622,339,438,-801,40,-63,35,43
3550,155,-2465,-5177,1580,27,-830,56,-63,35,43
3560,156,-2493,-4727,3369,-845,-671,146,-68,44,48
3570,157,-1295,-5266,4063,-2089,-456,469,-68,44,48
3580,158,667,-6373,2926,-2823,-56,959,-62,42,44
3590,159,2504,-6819,2042,-2133,255,1343,-62,42,44
3600,160,3286,-6148,2777,-1192,969,1532,-63,45,53
3610,161,2814,-3900,2995,-634,1682,1483,-63,45,53
3620,162,2103,-2691,2904,-758,1424,1286,-57,49,55
3630,163,1321,-2386,2750,-558,888,1006,-57,49,55
3640,164,669,-2763,2755,-476,892,643,-56,54,58
3650,165,456,-4244,2368,-571,653,309,-56,54,58
3660,166,-334,-6163,2395,-763,361,163,-54,56,60
3670,167,-1342,-7483,2070,-520,342,94,-54,56,60
3680,168,-2147,-7004,1735,58,556,10,-51,51,59
3690,169,-2401,-6001,1860,565,421,-143,-51,51,59
3700,170,-2025,-4948,1983,715,98,-217,-57,49,57
3710,171,-1446,-4230,1731,618,-120,-255,-57,49,57
3720,172,-850,-4121,1476,477,-190,-274,-46,50,50
3730,173,-321,-4107,1400,374,-173,-245,-46,50,50
3740,174,61,-4020,1308,451,-126,-154,-52,54,56
3750,175,181,-3779,1371,598,-46,-41,-52,54,56
3760,176,239,-3461,1401,634,50,77,-55,55,53
3770,177,214,-3211,1388,621,93,156,-55,55,53
3780,178,318,-2948,1329,558,144,192,-48,52,46
3790,179,451,-2756,1336,414,227,192,-48,52,46
3800,180,517,-2575,1314,333,270,151,-53,49,51
3810,181,483,-2335,1303,334,282,68,-53,49,51
3820,182,424,-2287,1290,398,329,-46,-52,48,52
3830,183,477,-2148,1150,410,343,-168,-52,48,52
3840,184,480,-1994,1139,409,460,-278,-47,53,53
3850,185,517,-2050,1078,372,530,-348,-47,53,53
3860,186,527,-2045,1010,309,521,-377,-50,54,48
3870,187,405,-2172,966,158,561,-364,-50,54,48
3880,188,217,-2381,825,19,594,-322,-54,50,44
3890,189,50,-2788,690,-57,688,-225,-54,50,44
3900,190,-3,-2990,586,-62,807,-86,-51,47,47
3910,191,-8,-3193,546,-52,917,58,-51,47,47
3920,192,-8,-3337,478,52,970,183,-53,53,41
3930,193,-121,-3477,399,245,948,255,-53,53,41
3940,194,-272,-3535,455,472,841,276,-53,51,41
3950,195,-409,-3593,486,780,860,253,-53,51,41
3960,196,-439,-3599,480,1067,826,214,-47,53,41
3970,197,-378,-3430,610,1299,750,155,-47,53,41
3980,198,-301,-3198,803,1346,648,76,-52,48,38
3990,199,-217,-3008,1091,1176,620,-4,-52,48,38
4000,200,-169,-2880,1147,873,562,-71,-48,42,34
4010,201,-305,-2876,1195,589,541,-119,-48,42,34
4020,202,-333,-2917,1091,418,577,-164,-47,51,35
4030,203,-392,-3141,1064,238,593,-219,-47,51,35
4040,204,-355,-3439,953,21,550,-264,-50,50,28
4050,205,-414,-3766,773,-291,434,-283,-50,50,28
4060,206,-530,-4139,653,-589,342,-278,-42,46,32
4070,207,-693,-4491,474,-772,280,-256,-42,46,32
4080,208,-693,-4725,224,-676,329,-233,-48,52,32
4090,209,-489,-4788,-42,-369,427,-206,-48,52,32
4100,210,-173,-4427,19,-53,527,-180,-42,50,30
4110,211,50,-4045,1522,-74,556,-177,-42,50,30
4120,212,-161,-3636,3570,-717,566,-289,-41,49,33
4130,213,-994,-4614,5051,-2359,868,-640,-41,49,33
4140,214,-3040,-5412,2916,-3017,254,-1025,-45,49,29
4150,215,-4020,-6894,822,-2110,-298,-1425,-45,49,29
4160,216,-3309,-6715,718,-1133,-1793,-1475,-49,47,39
4170,217,-2297,-5052,3374,-801,-2519,-1176,-49,47,39
4180,218,-1362,-4454,4024,-948,-1616,-886,-51,55,45
4190,219,-119,-4208,2414,-643,-1110,-524,-51,55,45
4200,220,26,-4616,2899,-395,-881,-131,-59,53,49
4210,221,211,-5670,3286,-378,-597,160,-59,53,49
4220,222,733,-7242,2799,-554,-163,265,-58,54,52
4230,223,1220,-7672,1838,-192,-92,308,-58,54,52
4240,224,1157,-6963,2106,221,-98,323,-58,54,56
4250,225,844,-5832,2573,208,76,269,-58,54,56
4260,226,444,-5329,2450,-97,249,142,-57,53,55
4270,227,9,-5253,1784,-253,185,-67,-57,53,55
4280,228,-451,-4914,1619,-144,18,-263,-57,55,47
4290,229,-789,-4619,1552,35,64,-401,-57,55,47
4300,230,-841,-4365,1400,134,119,-469,-60,56,54
4310,231,-711,-4205,1224,306,98,-448,-60,56,54
4320,232,-540,-3982,1345,483,86,-370,-59,53,53
4330,233,-521,-3737,1432,579,84,-263,-59,53,53
4340,234,-503,-3432,1351,600,-7,-120,-56,52,54
4350,235,-677,-3050,1269,593,-53,19,-56,52,54
4360,236,-715,-2786,1219,531,-86,164,-57,49,51
4370,237,-710,-2557,1124,507,-31,289,-57,49,51
4380,238,-670,-2390,1077,486,-3,365,-55,51,47
4390,239,-638,-2260,994,460,-19,391,-55,51,47
4400,240,-609,-2178,927,459,-83,389,-55,55,49
4410,241,-639,-2051,959,487,-103,344,-55,55,49
4420,242,-571,-1992,939,443,-175,285,-56,54,44
4430,243,-546,-1938,893,300,-250,212,-56,54,44
4440,244,-481,-1963,696,152,-309,132,-60,54,42
4450,245,-397,-1943,672,30,-316,44,-60,54,42
4460,246,-306,-2032,623,-83,-368,-53,-56,48,44
4470,247,-256,-2159,567,-157,-372,-154,-56,48,44
4480,248,-282,-2344,583,-162,-382,-252,-57,51,45
4490,249,-235,-2593,582,-82,-438,-323,-57,51,45
4500,250,-257,-2858,527,54,-457,-357,-57,51,47
4510,251,-233,-3059,527,292,-591,-334,-57,51,47
4520,252,-489,-3308,606,567,-698,-281,-58,52,54
4530,253,-461,-3209,531,922,-873,-210,-58,52,54
4540,254,-704,-3320,879,1271,-994,-113,-64,52,50
4550,255,-730,-3149,1022,1226,-940,-9,-64,52,50
4560,0,-759,-2960,1199,901,-804,67,-63,49,47
4570,1,-592,-2916,1094,374,-666,90,-63,49,47
4580,2,-288,-3129,872,-104,-613,75,-63,53,43
4590,3,-65,-3574,868,-396,-644,44,-63,53,43
4600,4,326,-4027,897,-414,-636,14,-62,50,46
4610,5,693,-4599,936,-329,-478,-7,-62,50,46
4620,6,912,-5147,841,-283,-262,-11,-63,45,41
4630,7,938,-5478,695,-306,-65,35,-63,45,41
4640,8,786,-5711,512,-296,110,87,-68,52,44
4650,9,474,-5687,66,-85,134,147,-68,52,44
4660,10,-38,-5539,-68,308,-4,180,-62,54,48
4670,11,-595,-5449,-225,620,-273,192,-62,54,48
4680,12,-1408,-5426,-353,706,-529,190,-62,54,44
4690,13,-1903,-5114,451,398,-578,166,-62,54,44
4700,14,-1886,-4447,2351,-525,-513,143,-62,48,50
4710,15,-1278,-4545,2934,-1592,-542,244,-62,48,50
4720,16,-19,-5750,2428,-2327,-466,594,-65,49,51
4730,17,1491,-6364,1119,-1920,77,986,-65,49,51
4740,18,1778,-5949,2382,-1218,555,1122,-62,54,60
4750,19,2014,-4659,4613,-1102,1109,1085,-62,54,60
4760,20,1910,-4059,4368,-976,1274,1081,-56,58,62
4770,21,1779,-3773,2601,-514,1250,1074,-56,58,62
4780,22,1406,-3245,2406,-193,1198,903,-56,58,58
4790,23,777,-3796,2624,-540,706,556,-56,58,58
4800,24,-146,-5279,2661,-669,280,266,-50,58,58
4810,25,-1224,-6792,2346,-401,163,140,-50,58,58
4820,26,-2270,-7065,2193,238,227,51,-55,57,59
4830,27,-2520,-6179,2087,657,208,-95,-55,57,59
4840,28,-2179,-5097,2189,618,20,-215,-52,58,60
4850,29,-1386,-4495,1896,387,-99,-268,-52,58,60
4860,30,-407,-4239,1622,212,-48,-317,-50,56,56
4870,31,316,-4465,1269,159,-63,-338,-50,56,56
4880,32,669,-4353,1037,395,-210,-273,-56,62,56
4890,33,528,-4169,1147,671,-217,-135,-56,62,56
4900,34,362,-3812,1434,720,-116,5,-51,57,51
4910,35,220,-3500,1436,581,-35,122,-51,57,51
4920,36,100,-3227,1396,360,74,205,-53,57,57
4930,37,237,-2880,1164,166,110,228,-53,57,57
4940,38,126,-2484,1179,49,169,198,-56,52,52
4950,39,145,-2337,1189,40,205,130,-56,52,52
4960,40,245,-2137,1131,140,188,35,-55,53,51
4970,41,278,-2145,1116,276,186,-64,-55,53,51
4980,42,192,-2065,1040,366,222,-164,-54,58,56
4990,43,187,-2016,947,378,177,-242,-54,58,56
5000,44,240,-2048,787,383,129,-289,-47,57,53
5010,45,197,-2102,767,384,74,-286,-47,57,53
5020,46,65,-2273,799,321,47,-219,-55,53,57
5030,47,-95,-2450,857,237,67,-99,-55,53,57
5040,48,-221,-2661,861,153,148,65,-54,58,52
5050,49,-206,-2915,813,107,336,240,-54,58,52
5060,50,-88,-3028,653,174,520,373,-51,53,53
5070,51,3,-3069,587,289,635,442,-51,53,53
5080,52,85,-3069,571,350,714,477,-50,56,52
5090,53,119,-3060,590,422,708,474,-50,56,52
5100,54,83,-3175,615,588,744,425,-48,56,48
5110,55,116,-3362,653,821,725,347,-48,56,48
5120,56,120,-3626,805,1026,659,271,-46,58,44
5130,57,94,-3858,1064,1132,618,198,-46,58,44
5140,58,131,-3956,1200,1037,540,133,-46,56,42
5150,59,-85,-3893,1358,807,520,78,-46,56,42
5160,60,-232,-3659,1428,514,570,19,-50,52,44
5170,61,-526,-3472,1328,147,532,-47,-50,52,44
5180,62,-788,-3431,1011,-87,515,-136,-41,51,39
5190,63,-887,-3544,680,-239,440,-220,-41,51,39
5200,64,-827,-3828,516,-416,345,-288,-44,54,40
5210,65,-791,-4240,465,-600,197,-326,-44,54,40
5220,66,-796,-4651,409,-688,61,-353,-45,53,43
5230,67,-637,-4977,301,-576,-3,-366,-45,53,43
5240,68,-477,-5053,94,-201,-7,-352,-46,54,40
5250,69,-221,-4984,116,165,39,-301,-46,54,40
5260,70,-92,-4661,582,202,78,-241,-47,49,45
5270,71,-23,-4191,2044,-199,192,-239,-47,49,45
5280,72,199,-4052,3404,-1051,511,-394,-44,52,44
5290,73,-157,-4802,3485,-2066,216,-653,-44,52,44
5300,74,-1773,-5026,3249,-2332,-425,-933,-45,51,43
5310,75,-2787,-5995,2630,-1930,-790,-1193,-45,51,43
5320,76,-3266,-6232,1983,-1156,-1346,-1289,-47,53,47
5330,77,-2769,-4847,2545,-572,-2023,-1191,-47,53,47
5340,78,-2218,-3778,4040,-652,-1545,-1030,-55,53,57
5350,79,-1156,-3340,2722,-570,-747,-801,-55,53,57
5360,80,-443,-4026,2022,-386,-703,-500,-61,47,59
5370,81,-44,-5319,2972,-560,-453,-198,-61,47,59
5380,82,924,-6722,2414,-609,-109,-8,-57,53,55
5390,83,1643,-7271,1779,-228,18,114,-57,53,55
5400,84,1679,-6593,1798,218,102,184,-62,46,56
5410,85,1396,-5429,2126,197,369,175,-62,46,56
5420,86,763,-4848,2099,-16,583,74,-63,49,59
5430,87,73,-4804,1710,-171,542,-82,-63,49,59
5440,88,-537,-4624,1505,-176,382,-239,-58,48,60
5450,89,-990,-4401,1292,-43,299,-348,-58,48,60
5460,90,-1087,-4153,1214,113,216,-422,-59,49,57
5470,91,-1073,-4008,1097,226,120,-457,-59,49,57
5480,92,-1011,-3885,1051,392,23,-442,-61,49,57
5490,93,-840,-3714,1050,550,-37,-386,-61,49,57
5500,94,-803,-3593,1160,654,-98,-277,-64,42,58
5510,95,-733,-3341,1210,663,-151,-129,-64,42,58
5520,96,-784,-3178,1310,656,-163,10,-65,51,59
5530,97,-799,-3049,1201,677,-156,135,-65,51,59
5540,98,-736,-2702,1116,683,-178,228,-57,49,59
5550,99,-656,-2486,1010,672,-191,282,-57,49,59
5560,100,-600,-2164,912,673,-222,321,-64,48,56
5570,101,-488,-2024,831,651,-261,342,-64,48,56
5580,102,-486,-1891,769,573,-319,342,-64,46,54
5590,103,-352,-1807,692,414,-360,326,-64,46,54
5600,104,-380,-1885,706,183,-381,278,-61,45,49
5610,105,-235,-2063,596,-45,-379,199,-61,45,49
5620,106,-150,-2347,473,-197,-377,89,-61,39,51
5630,107,-165,-2662,433,-240,-410,-30,-61,39,51
5640,108,-231,-2913,290,-131,-469,-146,-61,45,57
5650,109,-279,-3169,258,96,-455,-249,-61,45,57
5660,110,-375,-3358,203,360,-469,-316,-61,45,53
5670,111,-490,-3424,254,601,-529,-334,-61,45,53
5680,112,-613,-3248,251,833,-615,-319,-63,45,55
5690,113,-673,-3073,376,1124,-730,-270,-63,45,55
5700,114,-713,-3090,616,1191,-689,-208,-65,45,51
5710,115,-541,-3049,896,1129,-686,-149,-65,45,51
5720,116,-553,-3109,1319,839,-611,-106,-65,45,53
5730,117,-361,-3274,1290,462,-621,-84,-65,45,53
5740,118,-259,-3361,1342,-15,-609,-66,-64,38,46
5750,119,-3,-3507,1146,-423,-477,-78,-64,38,46
5760,120,323,-3628,643,-590,-317,-114,-64,40,46
5770,121,678,-3835,395,-553,-200,-124,-64,40,46
5780,122,880,-4276,319,-528,-117,-93,-71,41,51
5790,123,800,-4624,141,-473,-61,-33,-71,41,51
5800,124,520,-4941,121,-374,-81,41,-69,45,51
5810,125,86,-5079,-3,-190,-265,95,-69,45,51
5820,126,-744,-4831,514,-6,-561,130,-65,41,55
5830,127,-1577,-4446,1737,-213,-605,138,-65,41,55
5840,128,-1798,-4183,3084,-1011,-715,200,-72,38,48
5850,129,-1163,-5209,3242,-1933,-725,480,-72,38,48
5860,130,370,-6540,2772,-2735,-321,997,-65,41,55
5870,131,2081,-7002,1800,-2568,311,1441,-65,41,55
5880,132,2733,-6550,3187,-2089,914,1620,-66,42,66
5890,133,2139,-5314,3502,-1311,1501,1581,-66,42,66
5900,134,1548,-4137,3150,-818,1665,1417,-58,48,64
5910,135,1382,-3774,3088,-754,1257,1158,-58,48,64
5920,136,486,-5218,3015,-809,810,699,-55,53,65
5930,137,-219,-7098,2463,-636,744,276,-55,53,65
5940,138,-1192,-7869,1958,-74,798,91,-58,44,68
5950,139,-1787,-7264,2193,545,627,16,-58,44,68
5960,140,-1895,-6226,2465,652,345,-114,-55,53,59
5970,141,-1798,-5279,2286,471,176,-219,-55,53,59
5980,142,-1380,-4973,1788,280,126,-285,-52,52,60
5990,143,-849,-4901,1399,210,88,-298,-52,52,60
6000,144,-377,-4854,1283,229,49,-256,-55,51,65
6010,145,-204,-4737,1315,382,-45,-153,-55,51,65
6020,146,-104,-4367,1384,607,-9,-19,-53,49,59
6030,147,-121,-3977,1262,755,71,103,-53,49,59
6040,148,-68,-3478,1298,732,100,179,-54,44,56
6050,149,41,-3031,1221,543,129,205,-54,44,56
6060,150,182,-2698,1075,350,161,182,-53,47,59
6070,151,83,-2352,1009,273,119,115,-53,47,59
6080,152,-49,-2223,1055,358,52,19,-52,48,56
6090,153,-98,-2161,1082,469,115,-110,-52,48,56
6100,154,131,-2052,1061,510,181,-243,-52,52,54
6110,155,316,-2132,970,545,239,-345,-52,52,54
6120,156,591,-2114,919,576,312,-394,-55,45,57
6130,157,665,-2152,921,563,324,-383,-55,45,57
6140,158,611,-2023,897,511,339,-336,-53,45,53
6150,159,535,-1862,944,436,375,-255,-53,45,53
6160,160,377,-1876,856,349,441,-157,-52,48,54
6170,161,240,-1927,753,296,515,-53,-52,48,54
6180,162,82,-2021,681,284,652,26,-52,44,48
6190,163,-56,-2184,635,249,808,67,-52,44,48
6200,164,-126,-2417,441,157,910,86,-53,45,51
6210,165,-144,-2693,344,101,954,96,-53,45,51
6220,166,-93,-3073,327,153,949,107,-55,45,47
6230,167,-135,-3453,425,341,907,125,-55,45,47
6240,168,-99,-3867,545,605,790,165,-52,44,46
6250,169,-102,-4107,887,906,670,200,-52,44,46
6260,170,-143,-4435,1301,1155,582,246,-54,44,44
6270,171,-456,-4467,1530,1302,479,282,-54,44,44
6280,172,-835,-4018,1632,1179,468,278,-53,41,41
6290,173,-1071,-3607,1548,907,548,207,-53,41,41
6300,174,-1212,-3358,1143,547,508,108,-57,43,39
6310,175,-1263,-3393,594,12,373,25,-57,43,39
6320,176,-1201,-3583,281,-498,288,-55,-52,42,38
6330,177,-1099,-4007,251,-819,154,-145,-52,42,38
6340,178,-1031,-4542,224,-850,-68,-236,-45,43,37
6350,179,-744,-4996,107,-530,-196,-277,-45,43,37
6360,180,-305,-5401,47,22,-102,-284,-50,48,40
6370,181,156,-5513,150,363,42,-252,-50,48,40
6380,182,481,-5260,756,308,214,-236,-50,44,36
6390,183,757,-5143,1683,-94,481,-315,-50,44,36
6400,184,964,-5210,2231,-790,613,-499,-48,44,38
6410,185,502,-5359,2108,-1377,407,-714,-48,44,38
6420,186,-611,-5307,2377,-1621,-133,-862,-53,43,41
6430,187,-1790,-5578,2765,-1729,-465,-958,-53,43,41
6440,188,-2598,-5854,2955,-1626,-498,-1008,-48,44,40
6450,189,-2620,-5471,2586,-1037,-821,-989,-48,44,40
6460,190,-2908,-4448,3726,-695,-1114,-923,-53,47,43
6470,191,-2361,-3415,1910,-251,-1172,-782,-53,47,43
6480,192,-1883,-2851,1313,173,-1492,-558,-60,46,44
6490,193,-1786,-2644,2863,-76,-1245,-388,-60,46,44
6500,194,-1098,-4047,3283,-746,-557,-334,-62,42,50
6510,195,209,-6040,2659,-1131,-66,-302,-62,42,50
6520,196,1754,-7687,1819,-999,-190,-146,-64,50,56
6530,197,2646,-7616,1669,-305,-327,66,-64,50,56
6540,198,2421,-6114,1888,372,107,207,-63,45,55
6550,199,1693,-4821,1929,695,521,209,-63,45,55
6560,200,822,-4267,1622,542,575,125,-65,45,51
6570,201,-16,-3880,1526,247,544,26,-65,45,51
6580,202,-530,-3770,1445,22,556,-52,-62,40,52
6590,203,-784,-3878,1187,4,529,-124,-62,40,52
6600,204,-837,-3815,1052,147,411,-178,-66,44,52
6610,205,-940,-3757,906,344,240,-187,-66,44,52
6620,206,-1034,-3529,880,540,103,-166,-67,45,47
6630,207,-1095,-3246,950,657,-72,-118,-67,45,47
6640,208,-1260,-2954,938,650,-252,-44,-67,49,45
6650,209,-1414,-2652,977,557,-361,46,-67,49,45
6660,210,-1409,-2377,1062,460,-381,140,-66,42,54
6670,211,-1242,-2129,1054,363,-269,224,-66,42,54
6680,212,-1029,-1844,970,292,-197,277,-65,47,45
6690,213,-794,-1865,1040,267,-160,322,-65,47,45
6700,214,-492,-1908,862,286,-178,351,-66,44,48
6710,215,-317,-1932,868,210,-237,368,-66,44,48
6720,216,-116,-1978,793,16,-262,346,-63,45,49
6730,217,57,-2173,584,-186,-270,277,-63,45,49
6740,218,131,-2509,508,-265,-341,151,-61,47,45
6750,219,61,-2848,383,-169,-424,-8,-61,47,45
6760,220,-87,-3120,368,30,-502,-149,-61,43,47
6770,221,-289,-3348,302,256,-604,-259,-61,43,47
6780,222,-487,-3439,246,524,-648,-315,-67,43,49
6790,223,-521,-3621,333,831,-762,-309,-67,43,49
6800,224,-675,-3442,518,1065,-730,-264,-64,42,46
6810,225,-590,-3028,393,1251,-753,-186,-64,42,46
6820,226,-640,-2968,378,1262,-693,-90,-67,41,49
6830,227,-616,-3057,488,996,-501,-14,-67,41,49
6840,228,-447,-3128,711,615,-381,29,-66,40,48
6850,229,-292,-3460,1123,110,-239,42,-66,40,48
6860,230,-33,-3815,1266,-443,-228,46,-67,39,49
6870,231,50,-4338,1295,-724,-250,42,-67,39,49
6880,232,148,-4596,1127,-603,-156,5,-67,41,43
6890,233,315,-4748,528,-352,18,-16,-67,41,43
6900,234,430,-5012,244,-227,235,-9,-71,37,45
6910,235,371,-5272,-67,-214,386,-11,-71,37,45
6920,236,-1,-5379,-219,-88,355,-25,-71,35,39
6930,237,-419,-5322,-100,258,82,-45,-71,35,39
6940,238,-1415,-5150,1311,491,-318,-46,-68,40,46
6950,239,-1903,-4916,3671,-44,-407,-17,-68,40,46
6960,240,-1215,-5862,3667,-1472,-590,252,-72,40,46
6970,241,-3,-6848,1965,-2058,-490,706,-72,40,46
6980,242,1628,-7271,1525,-1728,134,1218,-70,44,48
6990,243,1485,-5961,3281,-1539,1069,1461,-70,44,48
7000,244,1102,-4809,3919,-1594,1461,1535,-65,45,55
7010,245,436,-3800,2719,-1154,1497,1506,-65,45,55
7020,246,208,-2710,2158,-620,1280,1252,-59,45,53
7030,247,-80,-2524,2753,-499,691,912,-59,45,53
7040,248,-242,-3669,3557,-1005,-15,673,-60,52,54
7050,249,-601,-5549,3092,-1985,-548,636,-60,52,54
7060,250,-1492,-8113,1464,-1487,-483,643,-56,52,58
7070,251,-2061,-8700,1330,114,-66,630,-56,52,58
7080,252,-2463,-7599,2066,905,-445,493,-56,52,62
7090,253,-1996,-5262,2154,1151,-911,343,-56,52,62
7100,254,-1120,-4492,2307,908,-1016,233,-50,52,58
7110,255,-211,-4304,1714,568,-867,54,-50,52,58
7120,0,480,-4378,1127,550,-761,-161,-53,53,55
7130,1,778,-4294,1047,763,-586,-298,-53,53,55
7140,2,749,-3982,1213,1053,-351,-340,-52,56,56
7150,3,677,-3450,1545,1128,-269,-311,-52,56,56
7160,4,622,-3046,1618,887,-150,-241,-54,50,56
7170,5,661,-2743,1512,456,7,-164,-54,50,56
7180,6,826,-2474,1208,11,92,-95,-53,47,55
7190,7,934,-2282,1167,-88,61,-55,-53,47,55
7200,8,828,-2210,1260,49,136,-79,-60,52,56
7210,9,617,-2210,1465,144,118,-114,-60,52,56
7220,10,338,-2246,1436,110,166,-173,-57,47,55
7230,11,24,-2440,1006,100,207,-237,-57,47,55
7240,12,-169,-2458,790,243,237,-286,-56,48,52
7250,13,-291,-2338,558,333,231,-301,-56,48,52
7260,14,-487,-2279,634,379,171,-286,-58,48,54
7270,15,-583,-2309,615,348,127,-233,-58,48,54
7280,16,-618,-2424,625,308,121,-136,-54,50,56
7290,17,-587,-2514,649,235,182,-17,-54,50,56
7300,18,-378,-2562,632,180,257,98,-58,50,50
7310,19,-219,-2549,597,202,309,219,-58,50,50
7320,20,-107,-2573,590,245,303,324,-57,47,47
7330,21,2,-2743,669,393,379,397,-57,47,47
7340,22,274,-2790,663,607,527,427,-57,49,47
7350,23,506,-2868,797,820,666,410,-57,49,47
7360,24,677,-2959,856,975,790,336,-57,45,45
7370,25,794,-2978,900,1083,805,217,-57,45,45
7380,26,731,-3090,1000,1054,715,80,-52,52,44
7390,27,570,-3162,1246,817,608,-54,-52,52,44
7400,28,384,-3359,1191,480,542,-162,-54,48,36
7410,29,-123,-3689,1218,210,491,-234,-54,48,36
7420,30,-607,-3911,1323,-43,423,-289,-53,45,33
7430,31,-1000,-4260,1114,-350,315,-316,-53,45,33
7440,32,-1325,-4810,782,-695,188,-310,-49,49,41
7450,33,-1478,-5243,329,-901,77,-278,-49,49,41
7460,34,-1353,-5356,59,-762,-78,-235,-52,50,46
7470,35,-1042,-5143,-106,-380,-216,-192,-52,50,46
7480,36,-627,-4814,3,-103,-217,-165,-53,53,35
7490,37,-97,-4459,383,-32,-59,-136,-53,53,35
7500,38,270,-4047,1433,-73,129,-121,-54,50,42
7510,39,170,-3811,2769,-453,286,-215,-54,50,42
7520,40,115,-4524,3102,-1453,537,-500,-55,45,35
7530,41,-1077,-4641,2404,-1941,-18,-827,-55,45,35
7540,42,-2006,-5228,2726,-1886,-460,-1165,-60,48,44
7550,43,-2394,-5619,1926,-1912,-955,-1415,-60,48,44
7560,44,-2438,-5056,3343,-1397,-1547,-1423,-60,52,52
7570,45,-2173,-4617,3970,-1195,-1166,-1327,-60,52,52
7580,46,-1364,-4380,2421,-852,-1068,-1122,-60,50,52
7590,47,-1191,-4510,2880,-513,-903,-804,-60,50,52
7600,48,-333,-5811,3075,-384,-515,-428,-67,47,57
7610,49,762,-6988,2789,-448,-148,-152,-67,47,57
7620,50,1542,-7580,2213,-246,9,-38,-69,47,61
7630,51,1450,-7064,2199,244,157,-25,-69,47,61
7640,52,1241,-5909,2356,454,504,-62,-67,45,61
7650,53,846,-5108,2361,319,768,-88,-67,45,61
7660,54,300,-4906,2018,-3,763,-156,-66,46,56
7670,55,-330,-4954,1643,-70,693,-278,-66,46,56
7680,56,-848,-4756,1472,86,577,-360,-69,43,57
7690,57,-1122,-4490,1432,252,470,-394,-69,43,57
7700,58,-1131,-4216,1255,387,369,-382,-70,44,52
7710,59,-988,-3969,1013,487,257,-324,-70,44,52
7720,60,-863,-3672,918,589,116,-239,-74,44,54
7730,61,-859,-3370,965,614,-23,-120,-74,44,54
7740,62,-932,-3192,989,585,-137,18,-66,40,52
7750,63,-1006,-2899,1136,514,-203,157,-66,40,52
7760,64,-1075,-2694,1062,405,-219,282,-72,44,52
7770,65,-1149,-2512,1087,369,-171,370,-72,44,52
7780,66,-1007,-2345,982,332,-163,421,-68,40,50
7790,67,-916,-2361,934,321,-169,426,-68,40,50
7800,68,-715,-2247,820,377,-213,400,-68,46,48
7810,69,-649,-2184,743,435,-317,351,-68,46,48
7820,70,-516,-2103,730,466,-399,291,-64,46,48
7830,71,-398,-2058,614,417,-487,234,-64,46,48
7840,72,-321,-2032,510,360,-520,166,-66,44,50
7850,73,-143,-1997,354,233,-562,83,-66,44,50
7860,74,-96,-2009,354,93,-560,-8,-70,42,48
7870,75,41,-2161,246,-2,-537,-116,-70,42,48
7880,76,85,-2271,184,-9,-587,-225,-68,44,42
7890,77,60,-2429,139,121,-605,-322,-68,44,42
7900,78,-15,-2567,189,368,-694,-405,-61,45,49
7910,79,-270,-2688,453,573,-755,-472,-61,45,49
7920,80,-423,-2922,603,729,-775,-504,-69,45,47
7930,81,-685,-2852,782,816,-819,-486,-69,45,47
7940,82,-736,-2837,761,954,-908,-413,-71,37,49
7950,83,-895,-3018,1431,880,-784,-301,-71,37,49
7960,84,-659,-3060,1260,568,-644,-179,-73,39,51
7970,85,-459,-3217,1167,46,-547,-57,-73,39,51
7980,86,-83,-3499,894,-556,-401,25,-74,42,50
7990,87,348,-3911,447,-932,-264,60,-74,42,50
8000,88,743,-4344,-1,-918,-147,97,-74,44,52
8010,89,964,-5006,-91,-739,47,156,-74,44,52
8020,90,975,-5568,-27,-518,264,187,-71,35,55
8030,91,721,-5804,145,-196,405,153,-71,35,55
8040,92,175,-5623,232,230,254,96,-70,40,54
8050,93,-640,-5227,711,323,-166,71,-70,40,54
8060,94,-1573,-4624,2590,-248,-438,93,-72,40,54
8070,95,-1595,-4777,2963,-1324,-688,275,-72,40,54
8080,96,-770,-6088,2583,-2156,-540,697,-72,42,50
8090,97,1241,-7651,1994,-2097,94,1284,-72,42,50
8100,98,2721,-7927,3085,-1796,1224,1731,-70,42,56
8110,99,2270,-6098,3287,-1528,1961,1789,-70,42,56
8120,100,1146,-3985,1937,-769,2100,1534,-67,51,63
8130,101,327,-2754,1997,-485,1771,1152,-67,51,63
8140,102,-108,-2376,2762,-672,1157,721,-63,47,65
8150,103,-332,-3734,3337,-1085,320,340,-63,47,65
8160,104,-817,-6153,2545,-1278,-93,140,-59,55,59
8170,105,-1885,-8288,1537,-744,66,115,-59,55,59
8180,106,-2773,-8388,1619,214,205,158,-60,50,64
8190,107,-2699,-7312,2382,632,-86,104,-60,50,64
8200,108,-2029,-5920,2309,717,-441,87,-59,53,63
8210,109,-1030,-4998,2189,602,-544,127,-59,53,63
8220,110,-294,-4505,1732,375,-490,95,-55,53,61
8230,111,154,-4544,1208,266,-578,29,-55,53,61
8240,112,284,-4421,1211,362,-591,-7,-52,56,60
8250,113,263,-4324,1323,555,-479,12,-52,56,60
8260,114,167,-4090,1405,716,-391,42,-56,50,58
8270,115,92,-3803,1226,849,-269,67,-56,50,58
8280,116,57,-3445,1206,878,-109,76,-57,53,57
8290,117,248,-3083,1319,705,-63,45,-57,53,57
8300,118,271,-2753,1371,421,0,-22,-51,49,57
8310,119,376,-2428,1299,171,48,-115,-51,49,57
8320,120,433,-2198,1157,115,29,-206,-60,50,60
8330,121,410,-2036,1058,136,18,-266,-60,50,60
8340,122,325,-2059,946,231,-15,-315,-53,59,53
8350,123,445,-1961,813,385,-17,-359,-53,59,53
8360,124,448,-1983,837,436,3,-379,-53,51,55
8370,125,352,-1971,748,481,32,-371,-53,51,55
8380,126,221,-2046,760,490,55,-324,-62,52,56
8390,127,146,-2060,802,420,94,-229,-62,52,56
8400,128,-2,-2093,753,286,212,-108,-65,45,51
8410,129,-165,-2284,699,225,348,12,-65,45,51
8420,130,-199,-2381,705,249,463,128,-61,49,57
8430,131,-186,-2707,706,308,555,215,-61,49,57
8440,132,-191,-2943,611,401,622,278,-58,48,56
8450,133,-16,-3101,484,541,702,293,-58,48,56
8460,134,66,-3315,466,706,712,304,-56,50,52
8470,135,177,-3379,556,856,704,292,-56,50,52
8480,136,272,-3439,643,975,667,265,-55,55,47
8490,137,316,-3582,746,1050,571,235,-55,55,47
8500,138,201,-3552,1030,1034,448,188,-55,49,45
8510,139,-99,-3756,1375,886,429,150,-55,49,45
8520,140,-432,-3719,1377,697,409,81,-61,49,43
8530,141,-791,-3707,1475,523,473,-31,-61,49,43
8540,142,-937,-3600,1304,244,442,-147,-51,45,41
8550,143,-1030,-3594,901,-211,207,-194,-51,45,41
8560,144,-1052,-3838,425,-756,-48,-189,-53,47,39
8570,145,-963,-4144,126,-1059,-220,-168,-53,47,39
8580,146,-787,-4439,28,-1006,-296,-144,-53,47,39
8590,147,-514,-4801,54,-728,-283,-123,-53,47,39
8600,148,-26,-4712,-29,-173,-74,-122,-52,48,42
8610,149,441,-4821,826,253,181,-105,-52,48,42
8620,150,568,-4591,2857,63,436,-118,-51,47,45
8630,151,614,-4942,4435,-1014,910,-327,-51,47,45
8640,152,342,-5712,2569,-2346,755,-652,-52,50,42
8650,153,-1868,-5461,2224,-2032,28,-1000,-52,50,42
8660,154,-2489,-6481,2623,-1940,-604,-1375,-57,51,49
8670,155,-2986,-6087,2050,-1766,-1367,-1475,-57,51,49
8680,156,-3095,-5168,3891,-1348,-1395,-1358,-55,47,53
8690,157,-1966,-4847,1695,-884,-880,-1224,-55,47,53
8700,158,-1135,-4198,2178,-196,-942,-941,-61,51,55
8710,159,-550,-4258,3613,-222,-518,-580,-61,51,55
8720,160,435,-5751,3247,-551,-90,-324,-69,47,59
8730,161,1221,-7335,2047,-550,72,-214,-69,47,59
8740,162,1483,-7658,1691,64,24,-119,-67,47,65
8750,163,1359,-6548,2214,573,331,-40,-67,47,65
8760,164,819,-5366,2371,593,620,31,-70,50,62
8770,165,58,-4729,2079,406,534,54,-70,50,62
8780,166,-636,-4492,1732,244,351,27,-67,47,63
8790,167,-1005,-4296,1484,206,326,-6,-67,47,63
8800,168,-1040,-4003,1378,187,359,-10,-67,45,55
8810,169,-995,-3862,1304,215,382,-17,-67,45,55
8820,170,-771,-3706,1229,264,431,-29,-71,51,61
8830,171,-545,-3570,1202,313,417,-38,-71,51,61
8840,172,-362,-3463,1160,372,413,-40,-66,46,56
8850,173,-343,-3217,1074,408,320,-33,-66,46,56
8860,174,-353,-3025,1003,389,225,-15,-68,50,58
8870,175,-554,-2732,877,392,74,15,-68,50,58
8880,176,-657,-2448,802,436,46,42,-67,43,53
8890,177,-674,-2243,789,433,25,78,-67,43,53
8900,178,-812,-2084,789,392,18,96,-67,45,55
8910,179,-746,-2036,745,399,19,104,-67,45,55
8920,180,-677,-1993,785,388,12,110,-62,48,54
8930,181,-608,-1964,735,294,26,107,-62,48,54
8940,182,-452,-1966,634,188,-10,75,-62,42,50
8950,183,-262,-2070,579,65,35,8,-62,42,50
8960,184,-157,-2202,555,-42,-11,-102,-63,45,53
8970,185,-163,-2379,457,-93,-95,-229,-63,45,53
8980,186,-179,-2508,456,-35,-240,-336,-60,42,54
8990,187,-273,-2596,295,124,-367,-441,-60,42,54
9000,188,-376,-2678,280,328,-430,-515,-70,36,50
9010,189,-413,-2810,184,523,-497,-560,-70,36,50
9020,190,-566,-2925,365,707,-564,-561,-73,45,49
9030,191,-634,-2918,440,874,-683,-518,-73,45,49
9040,192,-923,-2902,574,997,-694,-427,-70,44,48
9050,193,-965,-2732,464,1050,-656,-300,-70,44,48
9060,194,-977,-2756,547,944,-535,-179,-75,41,47
9070,195,-939,-3125,993,544,-350,-104,-75,41,47
9080,196,-651,-3491,1176,-73,-184,-76,-67,37,49
9090,197,-400,-4183,1236,-566,-190,-72,-67,37,49
9100,198,-257,-4967,1454,-822,-230,-66,-74,44,58
9110,199,130,-5256,1242,-746,-235,-56,-74,44,58
9120,200,458,-5449,678,-497,-118,-18,-72,36,50
9130,201,753,-5462,354,-314,85,54,-72,36,50
9140,202,723,-5450,60,-261,295,105,-72,40,54
9150,203,489,-5253,-103,-160,382,126,-72,40,54
9160,204,-46,-5140,-433,183,207,115,-72,42,54
9170,205,-752,-5065,-363,570,-237,93,-72,42,54
9180,206,-1786,-4975,765,513,-540,63,-74,40,56
9190,207,-2328,-4989,2196,-255,-650,38,-74,40,56
9200,208,-1829,-5277,3181,-1437,-572,159,-68,38,52
9210,209,-166,-6451,2763,-2428,-385,541,-68,38,52
9220,210,1934,-7310,1630,-2092,343,1073,-75,41,61
9230,211,2334,-6527,2410,-1435,903,1404,-75,41,61
9240,212,1730,-5131,3623,-1082,1594,1482,-71,39,59
9250,213,1267,-3844,3576,-793,1689,1404,-71,39,59
9260,214,959,-2846,2924,-558,1481,1232,-69,43,61
9270,215,748,-2893,2606,-445,1093,969,-69,43,61
9280,216,234,-3914,3024,-761,587,644,-64,42,60
9290,217,-290,-5606,2508,-893,269,393,-64,42,60
9300,218,-1066,-7062,2125,-509,383,275,-62,46,68
9310,219,-2001,-7324,2089,122,468,215,-62,46,68
9320,220,-2098,-6487,2194,528,202,82,-60,46,64
9330,221,-1931,-5435,2274,602,-138,-30,-60,46,64
9340,222,-1405,-4889,2227,527,-271,-77,-56,46,60
9350,223,-653,-4581,1806,432,-285,-131,-56,46,60
9360,224,-33,-4604,1582,395,-315,-158,-54,46,60
9370,225,405,-4480,1414,532,-259,-91,-54,46,60
9380,226,399,-4155,1529,701,-191,45,-60,46,56
9390,227,336,-3741,1669,751,-142,170,-60,46,56
9400,228,249,-3445,1612,641,-45,242,-53,45,59
9410,229,216,-3205,1431,498,5,295,-53,45,59
9420,230,244,-2835,1311,390,63,301,-57,47,55
9430,231,360,-2579,1283,301,110,244,-57,47,55
9440,232,371,-2445,1295,289,71,146,-55,45,55
9450,233,193,-2335,1293,346,211,13,-55,45,55
9460,234,309,-2270,1108,400,199,-118,-58,50,60
9470,235,346,-2178,1021,472,323,-244,-58,50,60
9480,236,490,-2000,957,480,370,-342,-61,51,49
9490,237,536,-2039,876,444,422,-401,-61,51,49
9500,238,547,-2088,824,410,451,-416,-61,47,51
9510,239,468,-2110,775,377,480,-379,-61,47,51
9520,240,384,-2194,806,304,511,-293,-55,43,53
9530,241,307,-2259,811,222,588,-195,-55,43,53
9540,242,119,-2421,750,153,716,-87,-56,40,48
9550,243,60,-2688,687,123,741,23,-56,40,48
9560,244,-128,-2837,608,177,834,114,-57,41,45
9570,245,-228,-3025,449,377,906,171,-57,41,45
9580,246,-305,-3148,447,630,961,194,-56,44,46
9590,247,-260,-3274,495,873,1057,186,-56,44,46
9600,248,-212,-3323,467,1073,1071,142,-60,42,42
9610,249,-124,-3354,485,1251,998,92,-60,42,42
9620,250,-147,-3387,603,1315,909,33,-56,40,38
9630,251,-134,-3465,794,1228,849,-5,-56,40,38
9640,252,-174,-3502,1086,1017,805,-22,-54,42,40
9650,253,-426,-3506,1252,737,800,-30,-54,42,40
9660,254,-699,-3581,1180,446,708,-56,-52,40,32
9670,255,-1103,-3561,1163,108,614,-88,-52,40,32
9680,0,-1309,-3699,931,-229,450,-114,-50,32,32
9690,1,-1389,-3967,550,-573,298,-118,-50,32,32
9700,2,-1345,-4420,332,-822,211,-135,-51,41,33
9710,3,-1231,-4786,292,-838,110,-165,-51,41,33
9720,4,-942,-5096,239,-577,40,-162,-54,40,32
9730,5,-532,-5281,35,-116,65,-146,-54,40,32
9740,6,-39,-5188,681,313,206,-108,-51,37,41
9750,7,379,-4901,2148,324,483,-107,-51,37,41
9760,8,632,-4785,3252,-471,793,-263,-53,37,33
9770,9,486,-5200,2659,-1738,796,-577,-53,37,33
9780,10,-677,-4891,1663,-1916,248,-857,-51,37,31
9790,11,-1876,-5594,2390,-1844,-395,-1108,-51,37,31
9800,12,-2942,-6013,2244,-2077,-1161,-1332,-58,36,40
9810,13,-2569,-5093,1476,-1124,-1732,-1318,-58,36,40
9820,14,-2209,-4139,4608,-633,-1394,-1234,-53,35,43
9830,15,-1349,-3772,3485,-757,-193,-1146,-53,35,43
9840,16,-854,-4210,1290,-299,-847,-894,-59,43,47
9850,17,-1499,-4268,3032,-169,-1392,-551,-59,43,47
9860,18,-882,-5200,2826,-184,-830,-241,-65,37,45
9870,19,430,-6099,2768,-125,-160,-47,-65,37,45
9880,20,1465,-6584,2528,-224,34,100,-63,39,51
9890,21,1720,-6656,2183,-137,-64,239,-63,39,51
9900,22,1058,-5563,2280,42,42,271,-63,37,45
9910,23,396,-4858,2168,180,274,180,-63,37,45
9920,24,-47,-4375,1928,160,280,34,-59,37,51
9930,25,-494,-4192,1857,-34,155,-107,-59,37,51
9940,26,-695,-4138,1590,-165,124,-204,-62,38,50
9950,27,-716,-4001,1305,-92,37,-245,-62,38,50
9960,28,-691,-3957,1140,57,-101,-224,-61,39,47
9970,29,-753,-3793,1158,253,-218,-163,-61,39,47
9980,30,-807,-3523,1150,439,-319,-67,-68,36,52
9990,31,-824,-3318,1165,508,-442,49,-68,36,52
10000,32,-950,-3028,1197,474,-440,171,-66,40,50
10010,33,-1083,-2802,1083,416,-434,283,-66,40,50
10020,34,-1025,-2693,990,380,-351,381,-68,36,48
10030,35,-998,-2539,869,346,-353,425,-68,36,48
10040,36,-791,-2375,822,345,-362,447,-63,33,47
10050,37,-701,-2285,872,343,-453,437,-63,33,47
10060,38,-559,-2273,746,369,-504,397,-64,40,46
10070,39,-467,-2218,696,356,-555,356,-64,40,46
10080,40,-305,-2194,607,276,-577,296,-62,30,46
10090,41,-166,-2308,550,146,-586,214,-62,30,46
10100,42,11,-2392,524,-17,-595,117,-65,37,41
10110,43,72,-2544,430,-142,-606,-12,-65,37,41
10120,44,93,-2689,288,-130,-630,-152,-59,35,47
10130,45,-16,-2786,227,25,-629,-278,-59,35,47
10140,46,-135,-2864,356,213,-601,-378,-61,33,49
10150,47,-245,-2884,348,399,-563,-436,-61,33,49
10160,48,-407,-3024,413,659,-610,-467,-62,36,46
10170,49,-599,-2997,417,948,-604,-478,-62,36,46
10180,50,-586,-3113,762,1249,-657,-457,-61,33,49
10190,51,-661,-3227,891,1315,-705,-405,-61,33,49
10200,52,-698,-3303,1061,1223,-700,-323,-66,34,46
10210,53,-640,-3295,1364,999,-736,-247,-66,34,46
10220,54,-549,-3302,1734,570,-654,-185,-70,34,42
10230,55,-366,-3372,1518,190,-637,-157,-70,34,42
10240,56,-100,-3580,1107,-149,-489,-142,-68,34,44
10250,57,354,-3813,693,-406,-304,-126,-68,34,44
10260,58,834,-4327,274,-555,-198,-80,-71,29,39
10270,59,1240,-5021,277,-686,10,13,-71,29,39
10280,60,1255,-5526,236,-681,225,122,-70,30,44
10290,61,849,-5834,73,-527,357,184,-70,30,44
10300,62,238,-5886,-245,-109,383,182,-70,28,44
10310,63,-395,-5760,-344,408,184,132,-70,28,44
10320,64,-1225,-5510,1334,439,-100,76,-68,30,44
10330,65,-1689,-5158,4123,-556,-379,63,-68,30,44
10340,66,-1247,-6333,2237,-1712,-571,342,-66,32,44
10350,67,-326,-6406,1361,-1647,-239,740,-66,32,44
10360,68,1006,-6336,1537,-1336,85,1073,-64,36,50
10370,69,1044,-4780,3358,-1251,810,1137,-64,36,50
10380,70,1019,-4318,4978,-1609,1106,1199,-62,38,52
10390,71,1251,-4395,3555,-1523,1121,1313,-62,38,52
10400,72,1362,-3649,1999,-808,1183,1349,-62,32,54
10410,73,1296,-3127,2724,-619,1010,1186,-62,32,54
10420,74,1013,-3803,2823,-1117,678,950,-61,43,49
10430,75,109,-5970,2346,-1269,477,773,-61,43,49
10440,76,-1069,-7749,1899,-475,553,694,-58,38,54
10450,77,-2352,-7588,1999,365,378,494,-58,38,54
10460,78,-3009,-5936,2067,787,137,227,-55,43,59
10470,79,-2602,-4756,2027,786,-164,22,-55,43,59
10480,80,-1721,-4175,1873,577,-286,-126,-55,39,51
10490,81,-698,-4133,1413,410,-285,-280,-55,39,51
10500,82,55,-4252,1173,382,-339,-384,-56,40,52
10510,83,262,-4236,1247,504,-448,-394,-56,40,52
10520,84,138,-4046,1489,757,-441,-300,-54,40,50
10530,85,182,-3677,1511,920,-242,-180,-54,40,50
10540,86,183,-3330,1517,861,-68,-79,-57,43,55
10550,87,222,-2987,1432,656,-9,-10,-57,43,55
10560,88,275,-2583,1437,338,30,16,-58,40,46
10570,89,315,-2262,1270,17,127,7,-58,40,46
10580,90,464,-2026,1220,-113,169,-47,-57,37,47
10590,91,702,-1931,1095,-19,155,-135,-57,37,47
10600,92,595,-1983,1164,118,175,-222,-55,37,49
10610,93,551,-2161,1014,272,192,-303,-55,37,49
10620,94,482,-2297,925,352,197,-353,-53,43,45
10630,95,324,-2410,821,381,233,-382,-53,43,45
10640,96,230,-2526,728,392,271,-368,-57,35,45
10650,97,148,-2697,737,354,304,-300,-57,35,45
10660,98,20,-2885,701,269,344,-190,-57,37,47
10670,99,-66,-3008,706,226,464,-67,-57,37,47
10680,100,-87,-2984,654,245,597,38,-61,35,45
10690,101,-61,-2910,593,288,662,113,-61,35,45
10700,102,-179,-2887,507,360,667,149,-55,37,41
10710,103,-194,-2880,435,477,644,165,-55,37,41
10720,104,-138,-2945,447,634,700,149,-59,35,41
10730,105,-43,-2983,516,784,696,97,-59,35,41
10740,106,8,-3141,721,889,681,44,-59,33,43
10750,107,124,-3251,881,995,694,-6,-59,33,43
10760,108,235,-3334,1009,1018,601,-37,-57,31,33
10770,109,242,-3395,1215,1044,551,-57,-57,31,33
10780,110,126,-3204,1466,980,513,-61,-56,32,32
10790,111,-249,-3110,1373,716,434,-52,-56,32,32
10800,112,-552,-3093,1352,370,462,-52,-53,33,35
10810,113,-861,-3192,1089,-21,562,-69,-53,33,35
10820,114,-955,-3573,525,-392,532,-80,-52,32,28
10830,115,-924,-3899,175,-707,473,-96,-52,32,28
10840,116,-959,-4361,3,-962,286,-119,-55,29,29
10850,117,-814,-4707,-200,-970,155,-129,-55,29,29
10860,118,-492,-4909,-114,-696,158,-140,-50,30,32
10870,119,-125,-4867,890,-232,207,-151,-50,30,32
10880,120,-230,-4493,3594,-427,349,-250,-55,31,31
10890,121,-669,-4905,4894,-1813,832,-623,-55,31,31
10900,122,-1160,-5650,1718,-2462,412,-1037,-52,32,36
10910,123,-2493,-5691,1457,-1649,-34,-1384,-52,32,36
10920,124,-2552,-6508,1071,-1561,-1042,-1662,-54,38,36
10930,125,-1875,-5265,491,-1307,-2117,-1577,-54,38,36
10940,126,-884,-4360,3782,-1275,-1919,-1373,-60,36,40
10950,127,-212,-4222,5098,-1507,-377,-1195,-60,36,40
10960,128,559,-4691,2458,-1008,-209,-970,-65,35,45
10970,129,-418,-6035,3602,-910,-430,-740,-65,35,45
10980,130,-509,-7074,2351,-483,-223,-569,-67,31,49
10990,131,288,-8305,1971,70,-190,-407,-67,31,49
11000,132,817,-7891,2455,403,49,-229,-68,34,46
11010,133,931,-6479,2668,529,347,-76,-68,34,46
11020,134,614,-5555,2471,469,493,31,-67,33,49
11030,135,225,-5068,2267,379,459,73,-67,33,49
11040,136,-315,-4606,2007,298,303,68,-69,27,47
11050,137,-779,-4330,1790,197,164,45,-69,27,47
11060,138,-922,-4185,1596,155,154,31,-67,33,47
11070,139,-927,-4049,1456,205,146,28,-67,33,47
11080,140,-820,-3814,1416,245,145,21,-66,28,46
11090,141,-641,-3585,1325,275,76,21,-66,28,46
11100,142,-657,-3396,1229,348,25,22,-68,32,40
11110,143,-558,-3125,1110,383,-51,39,-68,32,40
11120,144,-574,-2977,1034,344,-102,87,-72,32,42
11130,145,-604,-2761,995,350,-132,163,-72,32,42
11140,146,-610,-2589,937,388,-128,231,-65,33,41
11150,147,-556,-2522,902,451,-218,283,-65,33,41
11160,148,-772,-2522,936,471,-276,302,-71,37,41
11170,149,-705,-2361,871,481,-365,320,-71,37,41
11180,150,-809,-2321,972,437,-370,297,-68,34,38
11190,151,-660,-2243,896,413,-369,274,-68,34,38
11200,152,-574,-2113,807,418,-390,224,-65,35,41
11210,153,-445,-2078,662,398,-407,152,-65,35,41
11220,154,-403,-2006,644,319,-425,74,-67,27,41
11230,155,-390,-1972,597,236,-466,3,-67,27,41
11240,156,-318,-2007,453,193,-515,-67,-71,31,35
11250,157,-322,-2136,437,198,-554,-130,-71,31,35
11260,158,-208,-2242,299,277,-651,-187,-71,33,33
11270,159,-270,-2468,391,423,-741,-236,-71,33,33
11280,160,-305,-2561,440,644,-853,-258,-61,31,33
11290,161,-437,-2638,617,869,-968,-239,-61,31,33
11300,162,-604,-2670,716,892,-991,-195,-71,25,37
11310,163,-693,-2634,435,762,-926,-139,-71,25,37
11320,164,-677,-2775,456,617,-893,-89,-68,32,38
11330,165,-696,-2989,951,361,-743,-66,-68,32,38
11340,166,-473,-3307,1273,-84,-681,-63,-73,23,33
11350,167,-312,-3888,1340,-418,-716,-54,-73,23,33
11360,168,-65,-4476,1431,-608,-738,-31,-75,29,39
11370,169,333,-4969,1108,-624,-629,4,-75,29,39
11380,170,614,-5317,455,-490,-433,66,-72,30,42
11390,171,788,-5494,76,-336,-115,157,-72,30,42
11400,172,689,-5521,-122,-203,228,231,-74,26,42
11410,173,421,-5527,-148,-85,423,258,-74,26,42
11420,174,44,-5468,-132,234,377,224,-74,30,40
11430,175,-504,-5189,409,562,-30,147,-74,30,40
11440,176,-1420,-5008,2356,187,-394,58,-77,23,43
11450,177,-1290,-5230,3253,-854,-555,33,-77,23,43
11460,178,-26,-6461,2591,-1721,-577,265,-81,29,39
11470,179,1596,-7846,1834,-1572,-333,768,-81,29,39
11480,180,2252,-7853,2575,-1174,774,1280,-73,35,45
11490,181,1883,-5492,3110,-1175,1913,1397,-73,35,45
11500,182,994,-3956,2242,-866,2245,1249,-72,32,46
11510,183,175,-2640,2572,-629,1940,986,-72,32,46
11520,184,-90,-1974,2811,-566,1299,660,-66,38,48
11530,185,-41,-2701,2722,-413,830,331,-66,38,48
11540,186,102,-4603,2952,-893,405,194,-67,39,49
11550,187,-529,-6890,2372,-1452,145,234,-67,39,49
11560,188,-1545,-8481,1931,-827,393,300,-60,42,42
11570,189,-2008,-7921,1982,130,703,326,-60,42,42
11580,190,-2149,-6421,2347,673,380,292,-57,43,45
11590,191,-1768,-4933,2278,886,-42,255,-57,43,45
11600,192,-1219,-4198,2002,754,-173,178,-58,40,44
11610,193,-653,-3903,1539,464,-201,42,-58,40,44
11620,194,-182,-3942,1227,312,-342,-61,-61,39,47
11630,195,60,-4032,1274,376,-340,-86,-61,39,47
11640,196,172,-3868,1381,553,-303,-24,-59,45,47
11650,197,110,-3666,1413,676,-219,47,-59,45,47
11660,198,136,-3348,1405,726,-71,94,-57,37,45
11670,199,357,-3014,1285,698,50,96,-57,37,45
11680,200,534,-2672,1250,558,196,64,-60,42,44
11690,201,591,-2389,1246,399,289,11,-60,42,44
11700,202,791,-2202,1188,315,341,-89,-62,44,34
11710,203,879,-2129,1213,328,378,-198,-62,44,34
11720,204,835,-2030,1193,309,399,-307,-59,43,37
11730,205,786,-1914,1062,238,431,-392,-59,43,37
11740,206,702,-1833,863,215,409,-448,-61,43,39
11750,207,527,-1834,805,241,402,-480,-61,43,39
11760,208,393,-1922,819,263,427,-463,-58,40,40
11770,209,226,-2085,886,273,503,-400,-58,40,40
11780,210,115,-2291,898,241,588,-319,-60,38,34
11790,211,-73,-2457,891,152,699,-216,-60,38,34
11800,212,-151,-2741,744,104,754,-96,-66,38,36
11810,213,-277,-2937,564,170,806,19,-66,38,36
11820,214,-305,-3125,573,365,868,114,-63,35,31
11830,215,-287,-3273,359,649,910,187,-63,35,31
11840,216,-225,-3173,437,1009,981,234,-57,39,35
11850,217,-151,-2991,584,1241,989,246,-57,39,35
11860,218,-59,-2845,587,1232,965,237,-56,38,28
11870,219,-46,-2783,567,1080,889,210,-56,38,28
11880,220,35,-2946,457,862,772,174,-59,35,25
11890,221,-106,-3054,739,590,633,144,-59,35,25
11900,222,-317,-3348,990,289,512,107,-50,38,24
11910,223,-753,-3696,1126,109,433,63,-50,38,24
11920,224,-1184,-3871,1119,15,444,-6,-52,36,20
11930,225,-1252,-3970,1089,-114,428,-102,-52,36,20
11940,226,-1211,-4132,719,-433,309,-173,-52,36,26
11950,227,-1115,-4609,296,-824,180,-218,-52,36,26
11960,228,-1038,-5071,87,-1056,19,-249,-54,32,20
11970,229,-846,-5430,-162,-962,-150,-249,-54,32,20
11980,230,-549,-5567,-231,-520,-235,-224,-55,39,23
11990,231,-63,-5507,104,67,-170,-193,-55,39,23
12000,232,263,-5237,1069,430,28,-154,-53,35,27
12010,233,484,-4665,3274,147,340,-180,-53,35,27
12020,234,823,-4774,3654,-993,816,-444,-60,32,24
12030,235,295,-4895,1729,-2391,503,-741,-60,32,24
12040,236,-1784,-4574,1880,-1906,-230,-1001,-57,37,25
12050,237,-2475,-5781,2562,-1967,-612,-1346,-57,37,25
12060,238,-2901,-5294,1474,-1795,-1361,-1479,-58,42,30
12070,239,-2539,-4196,3928,-1163,-1605,-1389,-58,42,30
12080,240,-2102,-4015,4321,-1324,-476,-1334,-62,42,30
12090,241,-1398,-4059,1292,-818,-899,-1172,-62,42,30
12100,242,-1739,-4794,2992,-433,-1312,-884,-66,40,38
12110,243,-1176,-5923,2554,-380,-979,-617,-66,40,38
12120,244,63,-7464,2263,-216,-781,-442,-72,38,44
12130,245,1143,-7869,2450,93,-678,-278,-72,38,44
12140,246,1766,-6916,2876,293,-396,-143,-74,34,42
12150,247,1903,-5574,2728,271,37,-31,-74,34,42
12160,248,1432,-4922,2367,160,186,47,-76,38,40
12170,249,831,-4648,1823,49,128,52,-76,38,40
12180,250,196,-4554,1728,-58,111,28,-73,33,41
12190,251,-89,-4267,1674,-83,180,-6,-73,33,41
12200,252,-131,-4193,1603,-38,329,-54,-70,36,44
12210,253,-203,-4081,1184,124,328,-75,-70,36,44
12220,254,-399,-3910,1059,398,196,-86,-68,44,38
12230,255,-467,-3566,1072,601,89,-70,-68,44,38
12240,0,-560,-3219,1145,707,25,-13,-67,39,39
12250,1,-669,-2989,1082,708,-41,89,-67,39,39
12260,2,-834,-2666,978,638,-55,226,-72,38,38
12270,3,-906,-2413,928,540,-15,372,-72,38,38
12280,4,-896,-2262,865,488,45,478,-72,32,38
12290,5,-842,-2133,784,453,51,545,-72,32,38
12300,6,-837,-2107,814,389,16,585,-72,36,34
12310,7,-849,-2181,774,333,-46,585,-72,36,34
12320,8,-815,-2204,742,320,-109,549,-71,41,39
12330,9,-736,-2214,561,315,-203,469,-71,41,39
12340,10,-607,-2327,538,249,-281,339,-66,38,32
12350,11,-488,-2427,440,121,-360,193,-66,38,32
12360,12,-405,-2564,336,10,-456,46,-68,38,34
12370,13,-235,-2628,164,18,-494,-90,-68,38,34
12380,14,-107,-2606,48,170,-563,-214,-66,44,34
12390,15,-50,-2595,61,371,-591,-316,-66,44,34
12400,16,17,-2750,66,578,-653,-400,-75,41,37
12410,17,-59,-2854,281,780,-844,-447,-75,41,37
12420,18,-315,-2820,441,950,-915,-461,-66,38,34
12430,19,-637,-3105,594,1101,-943,-409,-66,38,34
12440,20,-773,-3160,713,1178,-828,-284,-68,36,36
12450,21,-781,-3352,1069,907,-646,-153,-68,36,36
12460,22,-654,-3513,1384,372,-588,-49,-71,31,29
12470,23,-439,-3787,1243,-271,-598,27,-71,31,29
12480,24,-236,-3948,1145,-664,-581,38,-76,36,30
12490,25,-41,-4122,786,-737,-502,9,-76,36,30
12500,26,162,-4278,364,-527,-395,16,-74,34,32
12510,27,285,-4695,176,-343,-263,62,-74,34,32
12520,28,288,-5144,26,-247,-119,105,-75,35,37
12530,29,34,-5458,-116,-108,11,92,-75,35,37
12540,30,-341,-5373,-68,117,-83,41,-79,35,39
12550,31,-773,-5139,396,296,-504,0,-79,35,39
12560,32,-1868,-4754,2200,104,-696,-6,-79,37,29
12570,33,-1681,-4887,3938,-802,-720,106,-79,37,29
12580,34,-268,-6327,3497,-2073,-747,476,-76,34,34
12590,35,1792,-7431,1452,-2078,-583,1030,-76,34,34
12600,36,2659,-7636,2548,-1455,383,1503,-80,36,36
12610,37,2254,-5803,4174,-1501,1249,1678,-80,36,36
12620,38,1333,-4376,3583,-1195,1507,1610,-73,47,43
12630,39,754,-3279,2753,-807,1445,1387,-73,47,43
12640,40,483,-2138,2237,-722,1209,1069,-66,46,48
12650,41,660,-2531,2677,-606,727,685,-66,46,48
12660,42,689,-4479,2708,-795,262,402,-60,52,50
12670,43,144,-6456,1806,-949,124,267,-60,52,50
12680,44,-596,-8096,1937,-251,330,203,-65,55,51
12690,45,-1383,-8082,2376,431,369,123,-65,55,51
12700,46,-1525,-6857,2658,681,206,3,-67,53,49
12710,47,-1341,-5399,2615,733,17,-42,-67,53,49
12720,48,-852,-4909,2198,605,-69,-63,-62,54,44
12730,49,-329,-4546,1743,576,-65,-98,-62,54,44
12740,50,67,-4226,1647,555,-43,-114,-62,52,44
12750,51,220,-4002,1654,571,-69,-62,-62,52,44
12760,52,135,-3794,1658,604,-146,-1,-64,46,42
12770,53,-5,-3543,1408,608,-136,59,-64,46,42
12780,54,40,-3167,1194,622,-28,95,-60,44,44
12790,55,169,-3046,1203,595,100,131,-60,44,44
12800,56,214,-2808,1298,560,185,139,-59,51,43
12810,57,376,-2522,1332,505,276,108,-59,51,43
12820,58,445,-2336,1333,443,331,50,-65,45,41
12830,59,484,-2238,1181,421,361,-23,-65,45,41
12840,60,488,-2146,1112,428,427,-107,-58,50,34
12850,61,560,-2145,870,455,485,-192,-58,50,34
12860,62,521,-1998,804,498,508,-252,-62,48,38
12870,63,340,-1957,729,435,433,-274,-62,48,38
12880,64,138,-1860,737,388,428,-269,-65,47,31
12890,65,41,-1843,676,324,455,-237,-65,47,31
12900,66,-159,-1947,703,282,510,-174,-61,51,31
12910,67,-197,-1947,691,237,585,-102,-61,51,31
12920,68,-240,-2098,633,166,645,-29,-59,47,33
12930,69,-278,-2316,634,104,640,46,-59,47,33
12940,70,-229,-2667,579,94,604,127,-56,50,28
12950,71,-167,-3146,575,192,610,207,-56,50,28
12960,72,-21,-3674,565,373,625,287,-57,49,29
12970,73,198,-4114,612,576,638,356,-57,49,29
12980,74,271,-4277,622,809,654,401,-58,46,28
12990,75,256,-4111,695,1017,635,396,-58,46,28
13000,76,111,-3858,869,1192,638,325,-54,48,24
13010,77,-124,-3646,1105,1281,700,206,-54,48,24
13020,78,-463,-3508,1195,1259,631,86,-59,45,19
13030,79,-832,-3505,1405,1101,707,-39,-59,45,19
13040,80,-906,-3412,1491,771,642,-156,-48,46,20
13050,81,-953,-3274,1446,255,403,-248,-48,46,20
13060,82,-1005,-3212,1110,-438,-30,-291,-55,39,13
13070,83,-904,-3368,719,-1115,-250,-304,-55,39,13
13080,84,-872,-3706,304,-1493,-225,-310,-55,41,21
13090,85,-760,-4003,76,-1437,-148,-323,-55,41,21
13100,86,-549,-4136,-81,-1011,-74,-338,-55,43,23
13110,87,-192,-4459,-267,-337,66,-360,-55,43,23
13120,88,139,-4631,319,83,243,-345,-50,48,20
13130,89,401,-4737,2267,-53,427,-331,-50,48,20
13140,90,583,-5117,3519,-889,711,-429,-59,47,21
13150,91,542,-6116,1903,-1919,629,-656,-59,47,21
13160,92,-1453,-5891,1396,-1597,-175,-831,-58,44,24
13170,93,-2493,-6412,2416,-1410,-620,-1003,-58,44,24
13180,94,-2799,-5676,1524,-1610,-1131,-1033,-62,44,30
13190,95,-2411,-4542,1161,-1253,-1531,-902,-62,44,30
13200,96,-2164,-3819,2861,-1092,-1636,-776,-63,51,29
13210,97,-1917,-3376,3765,-1081,-861,-663,-63,51,29
13220,98,-1103,-4072,1888,-747,-581,-553,-59,51,37
13230,99,-1273,-5008,2652,-615,-1003,-423,-59,51,37
13240,100,-1012,-6655,2505,-731,-919,-337,-67,47,43
13250,101,-222,-8068,1534,-239,-952,-273,-67,47,43
13260,102,481,-8017,2213,224,-964,-155,-69,47,39
13270,103,1152,-6611,3090,265,-617,-49,-69,47,39
13280,104,1532,-5846,3027,18,-161,38,-75,51,41
13290,105,1538,-5432,1918,-45,150,41,-75,51,41
13300,106,1222,-4911,1361,80,355,-17,-71,51,41
13310,107,813,-4434,1480,93,515,-61,-71,51,41
13320,108,431,-4106,1541,34,656,-135,-66,50,40
13330,109,102,-4018,1506,57,672,-227,-66,50,40
13340,110,-147,-4060,1286,189,579,-295,-65,51,41
13350,111,-402,-3898,1045,402,336,-313,-65,51,41
13360,112,-678,-3773,935,587,104,-287,-65,55,39
13370,113,-968,-3368,799,715,-211,-222,-65,55,39
13380,114,-1218,-3088,860,726,-439,-109,-67,47,37
13390,115,-1356,-2737,988,699,-492,23,-67,47,37
13400,116,-1420,-2432,1082,614,-452,163,-73,49,41
13410,117,-1301,-2131,1008,532,-385,286,-73,49,41
13420,118,-1123,-1825,960,456,-285,367,-66,46,40
13430,119,-881,-1588,844,403,-227,403,-66,46,40
13440,120,-702,-1611,826,362,-240,403,-71,47,41
13450,121,-539,-1630,612,305,-256,381,-71,47,41
13460,122,-372,-1759,550,224,-337,349,-67,43,35
13470,123,-308,-1819,540,85,-396,292,-67,43,35
13480,124,-139,-1995,575,-100,-396,185,-63,51,37
13490,125,-71,-2203,493,-244,-442,55,-63,51,37
13500,126,20,-2424,343,-270,-502,-81,-65,47,35
13510,127,44,-2611,221,-192,-553,-187,-65,47,35
13520,128,22,-2729,67,-56,-517,-266,-69,55,37
13530,129,-118,-2991,-29,127,-532,-315,-69,55,37
13540,130,-294,-3164,75,340,-615,-355,-68,50,42
13550,131,-465,-3351,197,563,-635,-372,-68,50,42
13560,132,-578,-3308,343,851,-732,-364,-65,57,41
13570,133,-897,-3466,887,1015,-745,-293,-65,57,41
13580,134,-712,-3396,1124,1098,-701,-150,-73,53,37
13590,135,-551,-3693,1505,967,-557,-1,-73,53,37
13600,136,-410,-3966,1565,522,-421,118,-74,46,32
13610,137,-11,-4063,1234,-131,-258,169,-74,46,32
13620,138,374,-4019,683,-658,9,147,-78,46,34
13630,139,585,-4060,18,-835,221,93,-78,46,34
13640,140,792,-4338,-69,-723,384,91,-72,46,40
13650,141,717,-4761,0,-467,500,92,-72,46,40
13660,142,392,-5175,-103,-184,492,81,-76,44,42
13670,143,-20,-5322,-221,130,307,48,-76,44,42
13680,144,-651,-5268,-183,515,-151,4,-72,50,40
13690,145,-1522,-5193,528,467,-394,-24,-72,50,40
13700,146,-2221,-5070,2230,-191,-430,2,-72,50,40
13710,147,-2247,-5059,3390,-1250,-562,155,-72,50,40
13720,148,-1231,-6484,3231,-2252,-397,633,-67,55,39
13730,149,1114,-7690,2317,-2455,412,1275,-67,55,39
13740,150,2307,-7410,3064,-1968,1142,1641,-68,54,44
13750,151,2624,-6307,3640,-1201,1864,1800,-68,54,44
13760,152,1887,-4180,2463,-394,2061,1660,-69,57,43
13770,153,1107,-2640,2423,-399,1263,1289,-69,57,43
13780,154,106,-2432,2941,-698,401,819,-60,60,46
13790,155,-449,-3494,3076,-1090,-94,403,-60,60,46
13800,156,-874,-5495,2276,-1561,-507,247,-59,63,45
13810,157,-1943,-7805,1702,-1141,-514,246,-59,63,45
13820,158,-2488,-8690,1191,86,-125,253,-52,60,52
13830,159,-1932,-8013,1852,742,-310,175,-52,60,52
13840,160,-1249,-5977,2217,922,-555,80,-54,68,54
13850,161,-425,-5036,2204,710,-644,38,-54,68,54
13860,162,191,-4738,1456,561,-550,-29,-58,64,58
13870,163,512,-4548,1016,614,-391,-135,-58,64,58
13880,164,522,-4309,1185,720,-320,-196,-57,63,51
13890,165,472,-4062,1436,773,-194,-229,-57,63,51
13900,166,330,-3809,1464,762,-166,-245,-54,58,48
13910,167,229,-3466,1335,727,-108,-266,-54,58,48
13920,168,168,-3155,1255,640,-82,-274,-55,57,45
13930,169,101,-2858,1311,561,-69,-283,-55,57,45
13940,170,138,-2624,1335,536,-85,-317,-54,56,40
13950,171,102,-2335,1335,556,-52,-364,-54,56,40
13960,172,154,-2201,1263,564,-55,-421,-54,56,46
13970,173,98,-2110,1087,546,5,-452,-54,56,46
13980,174,104,-1875,932,543,40,-464,-60,62,46
13990,175,114,-1800,752,564,66,-460,-60,62,46
14000,176,189,-1701,676,562,74,-423,-58,58,44
14010,177,209,-1748,691,523,41,-337,-58,58,44
14020,178,121,-1902,657,456,26,-213,-62,52,44
14030,179,8,-2041,621,372,81,-60,-62,52,44
14040,180,-121,-2221,607,272,237,90,-58,54,46
14050,181,-149,-2424,427,196,403,222,-58,54,46
14060,182,-19,-2619,410,179,475,318,-65,55,45
14070,183,-53,-2887,432,282,574,380,-65,55,45
14080,184,114,-3212,502,471,673,428,-57,47,43
14090,185,160,-3419,504,700,815,445,-57,47,43
14100,186,436,-3423,581,910,899,446,-58,48,42
14110,187,661,-3454,641,1070,979,419,-58,48,42
14120,188,750,-3317,752,1206,960,343,-57,51,35
14130,189,751,-3155,1055,1263,874,223,-57,51,35
14140,190,520,-3065,1346,1242,812,90,-52,50,28
14150,191,97,-3138,1303,1135,727,-15,-52,50,28
14160,192,-525,-3272,1351,918,757,-111,-52,50,28
14170,193,-916,-3342,1386,600,874,-222,-52,50,28
14180,194,-1031,-3504,1129,101,857,-294,-50,48,20
14190,195,-1225,-3648,672,-512,730,-308,-50,48,20
14200,196,-1312,-4061,195,-991,528,-288,-53,51,21
14210,197,-1462,-4588,71,-1167,270,-259,-53,51,21
14220,198,-1281,-4944,52,-1038,67,-229,-49,53,25
14230,199,-894,-5125,-69,-640,-12,-208,-49,53,25
14240,200,-536,-5190,302,-100,-12,-198,-52,52,28
14250,201,-305,-5040,1975,198,223,-196,-52,52,28
14260,202,-65,-4974,4147,-295,630,-340,-49,51,25
14270,203,188,-6050,3390,-1603,942,-685,-49,51,25
14280,204,-702,-5515,1539,-1795,118,-960,-52,54,26
14290,205,-1705,-5720,2863,-1522,-576,-1120,-52,54,26
14300,206,-1992,-5769,2428,-1768,-1145,-1169,-55,55,31
14310,207,-1755,-4882,1849,-1267,-1575,-1029,-55,55,31
14320,208,-1527,-3707,4651,-1120,-1196,-847,-48,54,36
14330,209,-1145,-3808,3747,-1191,-48,-712,-48,54,36
14340,210,-1074,-4331,1951,-667,-194,-577,-62,56,44
14350,211,-1583,-4985,2717,-439,-399,-411,-62,56,44
14360,212,-1004,-6185,2459,-373,-257,-288,-63,55,45
14370,213,-33,-7296,2116,-242,-139,-180,-63,55,45
14380,214,711,-7252,2303,-5,-88,-69,-63,53,45
14390,215,1161,-6477,2544,30,154,-22,-63,53,45
14400,216,1106,-5481,2334,-31,307,-11,-60,54,40
14410,217,654,-5131,1970,-82,272,-34,-60,54,40
14420,218,17,-4814,1698,23,213,-87,-58,56,42
14430,219,-529,-4625,1706,152,245,-132,-58,56,42
14440,220,-760,-4337,1627,237,258,-184,-63,51,43
14450,221,-885,-4049,1439,329,224,-221,-63,51,43
14460,222,-835,-3853,1249,416,152,-239,-63,47,43
14470,223,-731,-3618,1149,577,105,-236,-63,47,43
14480,224,-701,-3383,1161,706,35,-210,-66,48,38
14490,225,-609,-2975,1272,756,7,-157,-66,48,38
14500,226,-599,-2722,1281,737,1,-78,-63,49,35
14510,227,-581,-2444,1217,710,18,17,-63,49,35
14520,228,-582,-2086,1116,667,-28,100,-66,50,34
14530,229,-542,-1864,1020,601,-60,169,-66,50,34
14540,230,-501,-1701,969,601,-111,207,-64,48,32
14550,231,-505,-1568,989,584,-106,207,-64,48,32
14560,232,-487,-1471,967,518,-153,183,-60,50,36
14570,233,-499,-1472,880,450,-162,154,-60,50,36
14580,234,-447,-1398,806,369,-269,116,-64,46,30
14590,235,-498,-1502,827,215,-312,68,-64,46,30
14600,236,-449,-1707,786,21,-264,8,-61,49,33
14610,237,-416,-2021,720,-202,-218,-53,-61,49,33
14620,238,-352,-2356,468,-384,-230,-131,-66,44,32
14630,239,-301,-2785,200,-434,-301,-208,-66,44,32
14640,240,-283,-3075,101,-325,-366,-263,-62,50,32
14650,241,-473,-3392,57,-93,-462,-309,-62,50,32
14660,242,-554,-3494,138,213,-621,-332,-62,52,32
14670,243,-842,-3369,142,561,-776,-336,-62,52,32
14680,244,-977,-3412,363,840,-818,-320,-64,54,32
14690,245,-946,-3545,643,879,-745,-275,-64,54,32
14700,246,-908,-3721,1033,720,-653,-216,-69,49,35
14710,247,-561,-4147,1166,438,-570,-149,-69,49,35
14720,248,-381,-4553,1423,29,-579,-81,-70,42,28
14730,249,-17,-4917,1228,-383,-523,-22,-70,42,28
14740,250,467,-5033,759,-537,-370,2,-69,49,37
14750,251,690,-4970,239,-448,-98,17,-69,49,37
14760,252,975,-5015,53,-375,178,42,-70,46,36
14770,253,853,-4998,-42,-352,248,58,-70,46,36
14780,254,375,-5153,-43,-263,215,59,-78,46,36
14790,255,-189,-5190,-210,96,79,58,-78,46,36
14800,0,-803,-5133,-310,604,-299,56,-72,46,34
14810,1,-1551,-4893,-58,643,-617,40,-72,46,34
14820,2,-2265,-4572,910,105,-690,23,-70,50,36
14830,3,-2451,-4208,2627,-723,-786,31,-70,50,36
14840,4,-1602,-4961,3379,-1780,-587,271,-68,44,28
14850,5,304,-6043,3152,-2807,-114,751,-68,44,28
14860,6,2600,-7204,1711,-2315,303,1274,-72,50,40
14870,7,3816,-6937,3609,-1139,954,1562,-72,50,40
14880,8,3309,-5009,3728,-533,1606,1599,-69,53,43
14890,9,2239,-3451,2196,-190,1257,1488,-69,53,43
14900,10,1162,-2480,2528,-58,873,1246,-59,55,47
14910,11,123,-3169,3412,-310,439,809,-59,55,47
14920,12,-871,-5276,3469,-594,73,418,-55,57,41
14930,13,-2260,-7595,2483,-666,-69,270,-55,57,41
14940,14,-3179,-7977,2026,50,123,214,-55,63,47
14950,15,-3209,-6212,2350,617,95,57,-55,63,47
14960,16,-2532,-4856,2597,563,-259,-89,-62,58,40
14970,17,-1571,-4365,2303,205,-560,-155,-62,58,40
14980,18,-502,-4322,1744,52,-471,-233,-59,61,43
14990,19,410,-4519,1505,-5,-396,-268,-59,61,43
15000,20,743,-4377,1327,204,-383,-228,-58,60,44
15010,21,537,-4003,1416,595,-317,-142,-58,60,44
15020,22,434,-3559,1678,801,-166,-62,-52,64,42
15030,23,418,-3263,1608,783,17,1,-52,64,42
15040,24,529,-2904,1472,627,252,45,-60,58,44
15050,25,670,-2579,1515,345,506,60,-60,58,44
15060,26,889,-2353,1384,129,507,22,-54,58,40
15070,27,943,-2069,1146,79,480,-66,-54,58,40
15080,28,774,-1849,1219,131,436,-168,-63,59,39
15090,29,743,-1576,1041,254,435,-281,-63,59,39
15100,30,649,-1675,1066,341,422,-386,-57,55,35
15110,31,532,-1947,953,353,401,-469,-57,55,35
15120,32,415,-2086,908,404,411,-516,-58,62,40
15130,33,191,-2304,764,433,485,-536,-58,62,40
15140,34,12,-2548,623,480,426,-495,-54,62,36
15150,35,-191,-2787,616,481,498,-385,-54,62,36
15160,36,-397,-2987,504,425,610,-219,-52,60,32
15170,37,-450,-3018,394,376,701,-21,-52,60,32
15180,38,-400,-3040,350,422,779,159,-59,55,29
15190,39,-218,-2918,296,562,829,284,-59,55,29
15200,40,-30,-2836,342,678,870,357,-59,53,25
15210,41,207,-2888,280,700,807,398,-59,53,25
15220,42,236,-2887,389,708,705,404,-53,55,27
15230,43,213,-2909,383,773,601,373,-53,55,27
15240,44,97,-2912,476,964,477,301,-55,55,25
15250,45,-54,-2879,689,1062,390,213,-55,55,25
15260,46,-251,-3046,995,911,285,156,-51,53,21
15270,47,-551,-3265,1108,584,331,141,-51,53,21
15280,48,-899,-3466,1059,234,461,127,-44,54,18
15290,49,-1042,-3635,935,6,583,75,-44,54,18
15300,50,-938,-3854,945,-187,507,2,-48,56,20
15310,51,-856,-4205,631,-384,209,-41,-48,56,20
15320,52,-752,-4651,503,-707,-41,-41,-48,56,18
15330,53,-640,-5052,201,-954,-156,-25,-48,56,18
15340,54,-487,-5243,44,-864,-151,-9,-48,56,14
15350,55,-221,-4917,934,-525,8,-25,-48,56,14
15360,56,-129,-4309,3993,-433,207,-131,-50,58,18
15370,57,-777,-4919,6678,-2058,823,-568,-50,58,18
15380,58,-1774,-6220,3293,-3182,652,-1138,-48,62,20
15390,59,-3527,-6970,868,-1485,182,-1642,-48,62,20
15400,60,-3043,-6876,844,-1047,-1555,-1903,-48,62,22
15410,61,-1521,-4250,694,-871,-2977,-1581,-48,62,22
15420,62,-509,-3193,3326,-851,-1992,-1198,-56,66,26
15430,63,460,-3182,4880,-1058,-57,-874,-56,66,26
15440,64,1206,-4401,3058,-1215,776,-543,-62,62,40
15450,65,1123,-6361,3316,-1306,231,-170,-62,62,40
15460,66,644,-8532,1962,-867,-53,68,-69,59,39
15470,67,19,-8860,1392,517,-212,109,-69,59,39
15480,68,-763,-7246,2797,1047,-83,88,-64,66,44
15490,69,-768,-5875,3011,705,218,59,-64,66,44
15500,70,-846,-4891,2517,82,208,20,-64,62,34
15510,71,-838,-4901,2279,-412,95,-84,-64,62,34
15520,72,-816,-4838,1845,-291,23,-188,-61,65,41
15530,73,-725,-4536,1696,13,-95,-262,-61,65,41
15540,74,-494,-4483,1582,270,-88,-285,-60,62,38
15550,75,-295,-4092,1552,416,-1,-262,-60,62,38
15560,76,-165,-3816,1551,421,93,-221,-62,62,40
15570,77,-114,-3534,1489,414,134,-181,-62,62,40
15580,78,-128,-3319,1336,466,74,-131,-68,58,40
15590,79,-217,-3049,1157,543,-30,-53,-68,58,40
15600,80,-376,-2748,1144,552,-133,49,-61,61,35
15610,81,-544,-2549,1160,536,-134,178,-61,61,35
15620,82,-659,-2276,1113,487,-111,285,-72,62,40
15630,83,-692,-2074,921,448,-120,344,-72,62,40
15640,84,-890,-1966,950,389,-126,338,-63,63,35
15650,85,-844,-1939,910,309,-141,281,-63,63,35
15660,86,-802,-1860,752,284,-135,186,-64,60,34
15670,87,-738,-1842,762,255,-108,74,-64,60,34
15680,88,-479,-1883,696,197,-211,-11,-65,61,37
15690,89,-419,-1989,575,179,-320,-77,-65,61,37
15700,90,-322,-2105,577,194,-414,-118,-63,65,29
15710,91,-294,-2212,574,180,-505,-164,-63,65,29
15720,92,-309,-2392,648,143,-599,-189,-62,62,34
15730,93,-284,-2613,584,117,-623,-201,-62,62,34
15740,94,-316,-2880,494,149,-597,-209,-62,58,34
15750,95,-348,-3145,492,268,-634,-229,-62,58,34
15760,96,-452,-3341,627,453,-620,-238,-69,63,33
15770,97,-594,-3469,624,634,-647,-220,-69,63,33
15780,98,-643,-3314,440,902,-689,-180,-69,63,37
15790,99,-621,-3190,592,1101,-718,-116,-69,63,37
15800,100,-672,-3366,819,900,-748,-47,-67,61,35
15810,101,-586,-3602,1068,492,-701,6,-67,61,35
15820,102,-447,-3863,1103,12,-668,34,-73,61,31
15830,103,-254,-4255,949,-468,-567,62,-73,61,31
15840,104,94,-4561,720,-791,-454,93,-71,59,33
15850,105,461,-4893,520,-817,-249,114,-71,59,33
15860,106,785,-5313,283,-626,-22,150,-71,63,33
15870,107,856,-5480,258,-450,204,211,-71,63,33
15880,108,440,-5415,17,-254,316,275,-65,67,43
15890,109,-114,-5224,-7,34,342,286,-65,67,43
15900,110,-633,-4914,1110,154,291,226,-65,63,41
15910,111,-704,-4687,3711,-401,86,163,-65,63,41
15920,112,60,-6281,3953,-1472,-156,350,-65,63,39
15930,113,965,-7485,2285,-1455,-56,742,-65,63,39
15940,114,2293,-8431,2111,-658,635,1235,-66,70,40
15950,115,1972,-6489,2756,-902,1542,1447,-66,70,40
15960,116,425,-4501,2344,-982,2269,1319,-59,73,47
15970,117,-567,-3266,2123,-717,2330,1052,-59,73,47
15980,118,-1177,-2563,2223,-634,1961,737,-49,67,45
15990,119,-1253,-2105,2344,-447,1278,416,-49,67,45
16000,120,-1123,-2742,2762,-581,543,251,-55,75,45
16010,121,-1263,-3995,2813,-1414,-51,278,-55,75,45
16020,122,-1639,-5900,2700,-1996,-396,404,-46,76,52
16030,123,-2360,-7569,1675,-1177,-205,480,-46,76,52
16040,124,-2330,-7758,1540,254,133,559,-51,73,55
16050,125,-1812,-6991,2077,881,-285,525,-51,73,55
16060,126,-1371,-4996,2325,1050,-630,429,-49,71,55
16070,127,-741,-4051,2230,842,-679,319,-49,71,55
16080,128,-214,-3952,1765,605,-636,116,-42,74,58
16090,129,351,-4103,1375,502,-605,-63,-42,74,58
16100,130,528,-4077,1405,598,-527,-125,-37,77,49
16110,131,510,-3833,1491,764,-437,-107,-37,77,49
16120,132,435,-3547,1631,819,-364,-67,-46,78,56
16130,133,341,-3425,1642,752,-272,-40,-46,78,56
16140,134,317,-3189,1548,546,-134,-28,-45,69,51
16150,135,401,-2794,1456,286,44,-47,-45,69,51
16160,136,524,-2490,1276,126,122,-103,-44,76,54
16170,137,508,-2398,1357,97,90,-162,-44,76,54
16180,138,421,-2448,1341,137,43,-228,-47,73,47
16190,139,351,-2571,1125,224,81,-288,-47,73,47
16200,140,177,-2722,1012,315,110,-328,-45,69,55
16210,141,66,-2639,900,420,136,-355,-45,69,55
16220,142,-54,-2588,890,455,190,-345,-40,68,48
16230,143,-56,-2553,785,464,209,-302,-40,68,48
16240,144,-106,-2489,735,456,242,-231,-48,66,48
16250,145,-131,-2435,760,394,310,-142,-48,66,48
16260,146,-75,-2343,610,347,419,-55,-44,74,46
16270,147,-60,-2269,642,322,431,20,-44,74,46
16280,148,-63,-2404,682,339,480,74,-46,66,50
16290,149,-78,-2602,797,389,456,116,-46,66,50
16300,150,-73,-2744,806,561,595,134,-46,64,48
16310,151,105,-2972,943,740,667,126,-46,64,48
16320,152,243,-3177,987,908,739,102,-46,62,40
16330,153,393,-3282,1005,963,724,82,-46,62,40
16340,154,353,-3125,1016,926,765,72,-45,65,39
16350,155,325,-2912,1004,754,764,48,-45,65,39
16360,156,254,-2944,922,596,800,22,-35,65,35
16370,157,117,-2952,1057,503,853,-18,-35,65,35
16380,158,-126,-3108,1239,467,917,-82,-41,59,37
16390,159,-452,-3291,1276,416,843,-155,-41,59,37
16400,160,-820,-3414,1392,239,702,-221,-37,61,39
16410,161,-1149,-3669,1268,-157,462,-274,-37,61,39
16420,162,-1419,-4021,985,-598,210,-280,-41,61,39
16430,163,-1609,-4409,578,-902,50,-262,-41,61,39
16440,164,-1548,-4810,392,-897,-41,-233,-44,62,36
16450,165,-1324,-5058,455,-620,-147,-195,-44,62,36
16460,166,-1016,-5408,526,-230,-227,-157,-36,62,38
16470,167,-658,-5352,432,152,-182,-119,-36,62,38
16480,168,-85,-5226,642,323,99,-75,-40,58,40
16490,169,339,-5167,977,186,242,-43,-40,58,40
16500,170,312,-4712,2475,-276,218,-98,-37,67,41
16510,171,-78,-4971,3324,-1252,348,-341,-37,67,41
16520,172,-1077,-5245,2105,-1969,23,-636,-38,58,40
16530,173,-2334,-5189,2474,-1822,-424,-858,-38,58,40
16540,174,-2798,-5718,2285,-1921,-1004,-1062,-42,62,46
16550,175,-2404,-4916,1315,-1526,-1750,-1078,-42,62,46
16560,176,-1612,-4112,1939,-879,-1906,-917,-41,57,55
16570,177,-852,-3109,2630,-583,-1564,-716,-41,57,55
16580,178,-543,-2952,4032,-572,-928,-482,-46,58,56
16590,179,-343,-4087,3044,-674,-253,-369,-46,58,56
16600,180,-335,-5701,2595,-637,-347,-274,-43,59,63
16610,181,-131,-7027,1903,-434,-468,-163,-43,59,63
16620,182,402,-7612,1701,149,-678,-77,-50,58,58
16630,183,658,-6701,2668,371,-500,9,-50,58,58
16640,184,568,-5378,2541,329,-307,77,-50,54,58
16650,185,364,-4818,2384,108,-267,91,-50,54,58
16660,186,126,-4537,1773,-57,-250,40,-49,53,61
16670,187,-188,-4215,1501,-36,-217,1,-49,53,61
16680,188,-265,-3997,1440,-49,-90,-21,-45,51,61
16690,189,-272,-3956,1296,31,58,-80,-45,51,61
16700,190,-194,-3843,1195,64,149,-132,-49,59,61
16710,191,-145,-3702,1044,85,218,-162,-49,59,61
16720,192,-95,-3709,989,150,226,-165,-52,54,62
16730,193,-74,-3553,908,249,126,-142,-52,54,62
16740,194,-230,-3247,989,362,-12,-98,-51,59,59
16750,195,-396,-2896,978,397,-141,-18,-51,59,59
16760,196,-645,-2614,956,331,-264,75,-53,55,61
16770,197,-818,-2433,820,261,-344,174,-53,55,61
16780,198,-1052,-2236,813,204,-333,257,-52,54,54
16790,199,-1047,-1991,798,170,-309,297,-52,54,54
16800,200,-967,-1809,833,78,-266,298,-50,54,56
16810,201,-837,-1803,833,-4,-224,259,-50,54,56
16820,202,-680,-1884,738,-85,-224,185,-54,50,54
16830,203,-513,-2039,651,-121,-252,88,-54,50,54
16840,204,-381,-2245,532,-124,-275,-32,-54,50,52
16850,205,-257,-2501,473,-91,-321,-159,-54,50,52
16860,206,-269,-2617,352,-5,-443,-268,-50,52,62
16870,207,-341,-2738,306,167,-574,-334,-50,52,62
16880,208,-437,-2840,311,355,-735,-360,-49,49,55
16890,209,-590,-2975,445,524,-841,-360,-49,49,55
16900,210,-516,-2910,444,675,-881,-334,-52,50,58
16910,211,-570,-3001,638,779,-927,-293,-52,50,58
16920,212,-552,-2934,365,915,-947,-219,-54,46,58
16930,213,-599,-3158,445,812,-815,-147,-54,46,58
16940,214,-412,-3280,577,555,-687,-99,-49,47,57
16950,215,-240,-3485,1034,145,-564,-67,-49,47,57
16960,216,-42,-3892,1030,-248,-562,-38,-51,43,55
16970,217,-13,-4352,1123,-527,-583,2,-51,43,55
16980,218,186,-4620,968,-603,-485,10,-51,45,57
16990,219,347,-4993,625,-504,-311,-1,-51,45,57
17000,220,454,-5291,302,-398,-143,3,-51,43,55
17010,221,452,-5608,292,-374,55,36,-51,43,55
17020,222,238,-5745,57,-333,186,66,-52,44,54
17030,223,-120,-5657,-29,-131,190,82,-52,44,54
17040,224,-489,-5471,-7,311,59,83,-55,43,57
17050,225,-837,-5105,501,584,-252,105,-55,43,57
17060,226,-1719,-4823,2165,188,-351,133,-54,40,60
17070,227,-1888,-4710,3051,-786,-447,229,-54,40,60
17080,228,-1071,-5423,2658,-1655,-372,514,-61,41,59
17090,229,684,-6410,2339,-1940,-170,1000,-61,41,59
17100,230,2322,-7419,2733,-1821,738,1506,-51,37,59
17110,231,3390,-6789,3965,-1729,1619,1820,-51,37,59
17120,232,1963,-4576,2600,-864,2065,1701,-51,41,61
17130,233,582,-2642,1704,-319,1805,1327,-51,41,61
17140,234,-132,-1949,2594,-395,1308,893,-40,42,60
17150,235,-449,-2327,2897,-730,512,498,-40,42,60
17160,236,-906,-4053,2775,-1276,-236,227,-44,44,64
17170,237,-1537,-6633,2288,-1703,-671,92,-44,44,64
17180,238,-2661,-8565,1422,-869,-223,-12,-38,46,66
17190,239,-2916,-8449,995,371,-44,-65,-38,46,66
17200,240,-2533,-7321,1821,923,-539,-107,-39,47,69
17210,241,-1631,-5322,2218,1046,-917,-60,-39,47,69
17220,242,-603,-4697,1942,802,-913,-8,-40,46,62
17230,243,449,-4532,1313,621,-657,-32,-40,46,62
17240,244,1148,-4404,724,598,-494,-88,-42,48,66
17250,245,1276,-4198,878,738,-446,-92,-42,48,66
17260,246,1128,-3875,1192,882,-430,-51,-48,48,62
17270,247,907,-3638,1429,936,-394,7,-48,48,62
17280,248,562,-3243,1386,859,-324,82,-41,43,63
17290,249,459,-2986,1272,629,-227,157,-41,43,63
17300,250,471,-2773,1341,448,-195,171,-43,47,59
17310,251,351,-2497,1242,341,-108,137,-43,47,59
17320,252,279,-2228,1182,363,-31,39,-41,45,55
17330,253,233,-1998,1017,380,-25,-78,-41,45,55
17340,254,130,-2026,1050,464,-10,-209,-48,38,58
17350,255,259,-2025,828,531,126,-335,-48,38,58
17360,0,414,-2047,726,623,187,-422,-42,44,52
17370,1,401,-2154,757,631,187,-466,-42,44,52
17380,2,426,-2185,814,574,172,-455,-43,39,55
17390,3,330,-2258,797,497,214,-396,-43,39,55
17400,4,250,-2449,795,417,330,-282,-42,42,52
17410,5,346,-2517,647,342,484,-167,-42,42,52
17420,6,301,-2637,579,327,658,-60,-45,41,49
17430,7,330,-2679,535,339,762,28,-45,41,49
17440,8,225,-2710,576,396,803,89,-45,41,47
17450,9,23,-2842,615,524,926,110,-45,41,47
17460,10,128,-2976,462,747,1019,111,-49,43,51
17470,11,96,-2964,517,1012,1061,89,-49,43,51
17480,12,58,-2886,590,1191,1021,48,-48,36,40
17490,13,-4,-2824,676,1239,955,7,-48,36,40
17500,14,-23,-2867,829,1132,885,-18,-41,39,39
17510,15,-160,-2962,950,865,828,-29,-41,39,39
17520,16,-349,-3308,1138,601,856,-24,-46,34,34
17530,17,-697,-3479,1180,448,922,-15,-46,34,34
17540,18,-943,-3699,1265,337,989,-8,-40,38,28
17550,19,-1116,-3877,1242,189,957,-10,-40,38,28
17560,20,-1234,-4097,1100,-73,777,-9,-35,35,29
17570,21,-1391,-4358,737,-493,528,5,-35,35,29
17580,22,-1483,-4478,434,-803,284,15,-37,29,33
17590,23,-1416,-4624,118,-782,96,7,-37,29,33
17600,24,-1049,-4796,112,-480,-56,-16,-37,33,29
17610,25,-735,-4912,427,-79,-124,-47,-37,33,29
17620,26,-325,-5201,1496,204,24,-102,-46,38,36
17630,27,-239,-5117,4185,-43,182,-196,-46,38,36
17640,28,-722,-5866,5397,-1367,740,-515,-37,35,33
17650,29,-1502,-6056,2061,-2016,251,-844,-37,35,33
17660,30,-2699,-6197,2909,-1538,-63,-1131,-42,42,34
17670,31,-2303,-6478,1537,-1624,-1197,-1285,-42,42,34
17680,32,-1082,-4846,1371,-1132,-2170,-1094,-42,40,38
17690,33,-223,-3915,1806,-765,-2025,-822,-42,40,38
17700,34,515,-3088,3111,-834,-1347,-607,-49,37,43
17710,35,813,-3134,3286,-973,-418,-477,-49,37,43
17720,36,378,-4086,2820,-957,-64,-486,-55,41,45
17730,37,-304,-5887,3260,-1051,-138,-587,-55,41,45
17740,38,-456,-7065,1465,-568,-110,-651,-53,41,45
17750,39,-39,-7992,1727,312,-266,-607,-53,41,45
17760,40,241,-7310,2786,639,-57,-519,-49,45,43
17770,41,83,-5745,2664,438,257,-421,-49,45,43
17780,42,-30,-5041,2238,199,199,-406,-51,41,47
17790,43,-331,-4494,1921,54,-19,-338,-51,41,47
17800,44,-519,-4041,1823,125,-19,-238,-59,39,49
17810,45,-335,-3804,1745,209,201,-167,-59,39,49
17820,46,-10,-3660,1590,235,399,-137,-59,47,43
17830,47,167,-3642,1438,230,431,-123,-59,47,43
17840,48,150,-3546,1332,262,348,-117,-63,41,41
17850,49,96,-3418,1164,328,261,-114,-63,41,41
17860,50,-91,-3119,1032,424,120,-81,-60,34,44
17870,51,-397,-2804,867,524,1,-20,-60,34,44
17880,52,-683,-2545,1001,538,-97,70,-63,37,45
17890,53,-853,-2287,922,409,-84,180,-63,37,45
17900,54,-901,-2072,906,324,-20,285,-58,42,44
17910,55,-854,-1829,913,175,-23,373,-58,42,44
17920,56,-716,-1671,902,50,12,424,-58,34,44
17930,57,-602,-1581,773,2,-83,431,-58,34,44
17940,58,-581,-1603,797,-43,-200,406,-53,39,39
17950,59,-609,-1824,781,-158,-175,339,-53,39,39
17960,60,-437,-1883,598,-207,-197,235,-54,40,42
17970,61,-456,-2123,612,-205,-211,110,-54,40,42
17980,62,-395,-2410,610,-190,-265,-20,-58,42,42
17990,63,-496,-2648,669,-144,-299,-131,-58,42,42
18000,64,-464,-2853,557,-19,-273,-224,-56,40,40
18010,65,-311,-2899,377,150,-299,-279,-56,40,40
18020,66,-435,-3177,353,311,-281,-313,-54,40,40
18030,67,-338,-3175,214,717,-426,-314,-54,40,40
18040,68,-459,-3138,360,981,-423,-299,-55,43,41
18050,69,-643,-3054,429,1092,-523,-262,-55,43,41
18060,70,-820,-3061,425,912,-562,-221,-53,37,39
18070,71,-746,-3208,527,640,-501,-200,-53,37,39
18080,72,-697,-3596,950,281,-464,-191,-64,32,36
18090,73,-498,-4085,1193,-73,-426,-195,-64,32,36
18100,74,-322,-4583,1265,-370,-398,-213,-59,41,39
18110,75,-87,-4940,1135,-492,-272,-230,-59,41,39
18120,76,92,-5027,720,-421,-128,-256,-65,37,35
18130,77,134,-5303,407,-303,-110,-227,-65,37,35
18140,78,55,-5629,339,-242,-61,-141,-62,38,40
18150,79,-202,-5855,102,-128,19,-41,-62,38,40
18160,80,-497,-5843,92,94,77,50,-59,39,41
18170,81,-700,-5666,9,431,-1,134,-59,39,41
18180,82,-1042,-5390,-4,656,-325,206,-60,36,36
18190,83,-1480,-5009,3,421,-492,239,-60,36,36
18200,84,-2045,-4462,1122,-247,-519,224,-67,35,35
18210,85,-2017,-4030,3601,-1328,-571,280,-67,35,35
18220,86,-524,-5273,4653,-2709,-569,703,-62,38,38
18230,87,2028,-7721,2420,-2642,629,1355,-62,38,38
18240,88,4581,-8099,2771,-1031,1267,1776,-63,41,45
18250,89,4186,-6128,4820,-323,1873,1818,-63,41,45
18260,90,2413,-3860,3505,-188,2481,1701,-55,47,45
18270,91,1536,-1902,2558,-527,2008,1411,-55,47,45
18280,92,275,-1681,2557,-742,1132,920,-53,51,47
18290,93,-384,-2371,3155,-650,577,335,-53,51,47
18300,94,-1047,-4556,2937,-1122,-36,-27,-47,47,45
18310,95,-2501,-7710,2304,-1231,-347,-133,-47,47,45
18320,96,-3718,-7989,1116,-168,32,-210,-52,54,48
18330,97,-3399,-7327,1988,681,-48,-271,-52,54,48
18340,98,-2238,-5275,2614,908,-131,-230,-48,50,52
18350,99,-911,-4299,2746,726,-137,-145,-48,50,52
18360,100,208,-4243,1979,307,-243,-139,-48,52,50
18370,101,1123,-4311,1171,326,-56,-161,-48,52,50
18380,102,1278,-4091,1135,459,-13,-102,-52,50,48
18390,103,1062,-3791,1602,548,-111,-5,-52,50,48
18400,104,835,-3692,1798,511,-142,74,-46,42,44
18410,105,629,-3538,1551,432,-125,159,-46,42,44
18420,106,452,-3306,1418,362,-60,225,-45,53,41
18430,107,203,-3136,1424,261,-43,240,-45,53,41
18440,108,23,-2892,1326,228,-68,185,-52,46,46
18450,109,-147,-2709,1269,315,-60,85,-52,46,46
18460,110,-366,-2374,1212,386,4,-50,-48,48,46
18470,111,-246,-2026,931,449,127,-180,-48,48,46
18480,112,-20,-1771,788,510,179,-315,-48,48,42
18490,113,170,-1548,785,445,167,-419,-48,48,42
18500,114,480,-1569,637,347,198,-456,-44,48,38
18510,115,622,-1655,625,242,268,-419,-44,48,38
18520,116,704,-1694,550,149,343,-320,-48,44,40
18530,117,524,-1880,518,30,410,-172,-48,44,40
18540,118,386,-2084,513,-94,505,-6,-46,44,40
18550,119,227,-2412,521,-200,595,145,-46,44,40
18560,120,42,-2874,551,-259,705,280,-50,42,36
18570,121,-5,-3363,605,-201,845,369,-50,42,36
18580,122,-29,-3950,516,71,972,415,-47,49,39
18590,123,84,-4315,404,515,1051,433,-47,49,39
18600,124,178,-4292,380,1078,1023,390,-47,47,41
18610,125,109,-3891,580,1553,912,282,-47,47,41
18620,126,48,-3518,924,1622,692,127,-45,45,39
18630,127,-191,-3237,1110,1230,465,-29,-45,45,39
18640,128,-520,-3284,915,707,386,-152,-47,45,27
18650,129,-1043,-3517,1078,358,466,-251,-47,45,27
18660,130,-1285,-4178,1430,194,546,-334,-39,41,27
18670,131,-1353,-4698,1542,63,489,-383,-39,41,27
18680,132,-1117,-5160,1209,-140,255,-374,-44,44,28
18690,133,-933,-5163,677,-359,40,-327,-44,44,28
18700,134,-833,-5105,370,-500,-41,-261,-42,46,28
18710,135,-720,-5022,219,-440,69,-203,-42,46,28
18720,136,-479,-5223,-6,-168,288,-148,-44,42,30
18730,137,-223,-5398,566,34,525,-98,-44,42,30
18740,138,-115,-5388,2657,-263,691,-81,-43,41,33
18750,139,-459,-5776,4213,-1236,924,-218,-43,41,33
18760,140,-707,-6723,1742,-2113,694,-498,-46,44,28
18770,141,-1828,-6026,1453,-1364,-153,-706,-46,44,28
18780,142,-2509,-6013,3255,-1090,-735,-914,-44,46,32
18790,143,-2347,-4969,1920,-1107,-1279,-1058,-44,46,32
18800,144,-1682,-3474,1606,-688,-1898,-965,-47,41,31
18810,145,-1388,-2744,3094,-725,-1783,-870,-47,41,31
18820,146,-1178,-2263,3425,-725,-1006,-766,-53,45,37
18830,147,-873,-2827,2756,-599,-391,-642,-53,45,37
18840,148,-560,-4648,2570,-624,-346,-463,-55,45,41
18850,149,204,-6885,2468,-574,-307,-271,-55,45,41
18860,150,1229,-8033,1457,43,-295,-45,-53,49,39
18870,151,1294,-6860,1725,838,-351,140,-53,49,39
18880,152,830,-5147,2316,1017,-117,225,-54,48,44
18890,153,271,-4239,2336,649,10,224,-54,48,44
18900,154,-111,-3956,1952,129,2,158,-55,49,41
18910,155,-443,-3915,1644,-175,9,53,-55,49,41
18920,156,-739,-3900,1717,-267,-16,-29,-60,46,44
18930,157,-735,-3854,1638,-226,6,-93,-60,46,44
18940,158,-545,-3867,1395,-104,-48,-135,-54,42,42
18950,159,-493,-3750,1280,15,-101,-129,-54,42,42
18960,160,-366,-3540,1237,93,-161,-83,-53,43,41
18970,161,-363,-3303,1168,117,-205,-33,-53,43,41
18980,162,-448,-3089,1140,121,-298,54,-61,43,41
18990,163,-663,-2837,1203,98,-319,134,-61,43,41
19000,164,-749,-2717,1081,95,-361,209,-53,47,45
19010,165,-874,-2534,986,104,-297,271,-53,47,45
19020,166,-840,-2498,856,102,-275,307,-56,40,42
19030,167,-710,-2407,747,90,-262,318,-56,40,42
19040,168,-596,-2349,793,134,-284,303,-54,44,42
19050,169,-394,-2200,691,207,-279,268,-54,44,42
19060,170,-273,-2043,692,247,-272,223,-60,42,38
19070,171,-157,-1940,631,223,-303,168,-60,42,38
19080,172,-52,-1895,664,165,-324,102,-54,48,38
19090,173,-51,-1950,626,50,-314,17,-54,48,38
19100,174,2,-2195,705,-56,-300,-87,-57,41,41
19110,175,-81,-2435,760,-115,-237,-207,-57,41,41
19120,176,-114,-2602,625,-72,-204,-314,-57,49,43
19130,177,-284,-2826,608,42,-219,-381,-57,49,43
19140,178,-450,-2902,671,179,-291,-406,-61,43,45
19150,179,-594,-2964,623,310,-361,-406,-61,43,45
19160,180,-822,-3130,558,494,-403,-372,-61,45,43
19170,181,-877,-3307,595,713,-465,-313,-61,45,43
19180,182,-846,-3455,869,705,-425,-253,-64,46,42
19190,183,-632,-3793,1225,473,-347,-217,-64,46,42
19200,184,-379,-4270,1347,109,-319,-202,-59,47,39
19210,185,-104,-4837,1262,-216,-306,-189,-59,47,39
19220,186,209,-5242,1029,-394,-227,-171,-64,42,38
19230,187,507,-5481,669,-408,-27,-136,-64,42,38
19240,188,690,-5494,469,-323,161,-75,-58,38,38
19250,189,603,-5638,372,-296,297,8,-58,38,38
19260,190,266,-5844,253,-212,378,72,-66,44,42
19270,191,-279,-5990,140,0,458,84,-66,44,42
19280,192,-853,-6010,443,306,410,73,-61,45,39
19290,193,-1624,-5817,1966,263,245,68,-61,45,39
19300,194,-2034,-5749,4978,-585,8,117,-62,42,42
19310,195,-466,-7366,4500,-1822,178,486,-62,42,42
19320,196,2026,-8340,337,-1148,672,987,-59,45,47
19330,197,1965,-5974,1061,-216,1083,1168,-59,45,47
19340,198,508,-3607,1553,-480,1639,833,-56,46,46
19350,199,-378,-2859,1412,-506,1484,449,-56,46,46
19360,200,-470,-3035,1582,-422,1268,276,-60,46,44
19370,201,-625,-2819,2035,-416,706,217,-60,46,44
19380,202,-526,-2811,2624,-366,106,189,-51,49,41
19390,203,-253,-3556,3354,-481,-410,270,-51,49,41
19400,204,-118,-5029,2838,-946,-624,474,-48,52,44
19410,205,-701,-6239,1971,-1105,-305,706,-48,52,44
19420,206,-1377,-7304,2054,-489,428,837,-52,46,48
19430,207,-1539,-7196,2299,24,556,800,-52,46,48
19440,208,-1850,-5463,1782,594,426,636,-45,49,49
19450,209,-1563,-4447,1763,969,188,444,-45,49,49
19460,210,-1131,-3481,1696,870,-114,132,-47,47,49
19470,211,-583,-3331,1460,662,-240,-173,-47,47,49
19480,212,-137,-3669,1091,490,-313,-339,-48,50,40
19490,213,58,-3654,1029,501,-529,-382,-48,50,40
19500,214,13,-3514,1164,590,-661,-366,-46,54,44
19510,215,-68,-3466,1277,590,-636,-325,-46,54,44
19520,216,-131,-3539,1229,490,-552,-282,-51,43,45
19530,217,-77,-3505,1121,438,-391,-230,-51,43,45
19540,218,109,-3238,1086,397,-244,-189,-46,46,44
19550,219,269,-2990,1000,333,-167,-155,-46,46,44
19560,220,429,-2726,992,239,-118,-124,-49,43,39
19570,221,429,-2525,914,202,-178,-108,-49,43,39
19580,222,326,-2421,990,243,-219,-104,-46,44,36
19590,223,223,-2334,1088,256,-242,-117,-46,44,36
19600,224,105,-2316,1109,213,-205,-107,-52,46,38
19610,225,79,-2195,1027,169,-184,-72,-52,46,38
19620,226,143,-2175,880,173,-169,-18,-50,42,42
19630,227,190,-2078,740,206,-115,41,-50,42,42
19640,228,237,-2014,630,252,-46,106,-55,45,37
19650,229,269,-2024,591,288,15,155,-55,45,37
19660,230,298,-2038,615,310,128,190,-53,45,37
19670,231,228,-2179,554,351,277,209,-53,45,37
19680,232,127,-2359,588,394,320,230,-49,49,37
19690,233,29,-2527,687,455,418,274,-49,49,37
19700,234,-5,-2682,726,533,521,340,-50,44,40
19710,235,16,-2729,728,618,576,412,-50,44,40
19720,236,-6,-2685,771,666,595,462,-50,48,32
19730,237,9,-2814,731,631,531,502,-50,48,32
19740,238,21,-2820,699,580,462,532,-46,46,36
19750,239,-121,-2962,844,520,359,534,-46,46,36
19760,240,-290,-3144,1175,434,283,503,-45,45,27
19770,241,-638,-3283,1383,316,240,438,-45,45,27
19780,242,-947,-3624,1549,180,182,334,-44,44,32
19790,243,-1209,-3779,1605,109,229,208,-44,44,32
19800,244,-1231,-4106,1391,24,191,68,-41,45,27
19810,245,-1213,-4206,1127,-163,36,-67,-41,45,27
19820,246,-1103,-4181,855,-463,-85,-192,-45,47,29
19830,247,-911,-4236,568,-740,-217,-281,-45,47,29
19840,248,-758,-4385,425,-808,-324,-339,-41,47,25
19850,249,-476,-4618,277,-589,-367,-363,-41,47,25
19860,250,-86,-4957,201,-265,-327,-344,-43,45,35
19870,251,187,-5052,502,-94,-229,-292,-43,45,35
19880,252,562,-5077,872,-268,28,-235,-38,46,36
19890,253,1004,-5010,1950,-690,302,-221,-38,46,36
19900,254,1211,-5032,3821,-1460,635,-357,-41,45,33
19910,255,533,-5988,3752,-2734,336,-635,-41,45,33
19920,0,-1587,-6096,1994,-2205,-418,-888,-40,42,38
19930,1,-2505,-6706,2625,-1257,-631,-1119,-40,42,38
19940,2,-2606,-6094,1863,-550,-1134,-1171,-48,48,40
19950,3,-2621,-4410,3152,-330,-1511,-1104,-48,48,40
19960,4,-2402,-3521,3100,-563,-1196,-969,-52,48,44
19970,5,-1645,-3095,1487,-373,-1004,-750,-52,48,44
19980,6,-1320,-3411,1921,-301,-1030,-423,-48,54,48
19990,7,-914,-4655,2661,-600,-568,-128,-48,54,48
20000,8,248,-6387,2192,-800,-34,47,-56,52,50
20010,9,1572,-7576,1363,-599,116,180,-56,52,50
20020,10,2205,-7367,1205,-29,96,261,-59,47,51
20030,11,1783,-5960,1653,317,355,188,-59,47,51
20040,12,1077,-4980,1837,294,549,34,-56,48,52
20050,13,324,-4624,1488,121,505,-146,-56,48,52
20060,14,-433,-4501,1598,-39,432,-303,-52,46,46
20070,15,-1017,-4269,1582,-233,450,-408,-52,46,46
20080,16,-1060,-4204,1389,-255,483,-490,-53,49,47
20090,17,-883,-4104,1208,-140,462,-524,-53,49,47
20100,18,-697,-3915,1080,64,405,-498,-59,47,51
20110,19,-605,-3707,1067,264,292,-427,-59,47,51
20120,20,-610,-3442,1137,313,201,-327,-54,46,48
20130,21,-622,-3273,1083,319,131,-205,-54,46,48
20140,22,-739,-3010,1096,340,31,-93,-59,47,45
20150,23,-784,-2705,927,402,-35,1,-59,47,45
20160,24,-857,-2513,970,437,-48,64,-60,46,48
20170,25,-879,-2242,855,491,-42,103,-60,46,48
20180,26,-900,-2020,799,478,-35,131,-60,48,48
20190,27,-806,-2024,829,414,15,126,-60,48,48
20200,28,-672,-1934,813,350,39,95,-55,45,47
20210,29,-424,-1932,660,229,42,52,-55,45,47
20220,30,-242,-2211,577,62,58,-25,-59,47,41
20230,31,-29,-2446,421,-34,29,-107,-59,47,41
20240,32,-13,-2658,300,-34,-95,-220,-60,48,46
20250,33,-90,-2808,212,73,-269,-329,-60,48,46
20260,34,-237,-2837,201,253,-511,-401,-57,41,39
20270,35,-385,-2807,294,480,-645,-430,-57,41,39
20280,36,-614,-2853,444,660,-717,-414,-60,46,44
20290,37,-628,-2867,428,841,-724,-357,-60,46,44
20300,38,-680,-2958,397,992,-742,-278,-64,42,46
20310,39,-711,-3103,669,1023,-642,-187,-64,42,46
20320,40,-745,-3227,1154,786,-484,-123,-62,42,44
20330,41,-757,-3382,1082,367,-376,-85,-62,42,44
20340,42,-717,-3647,941,-68,-287,-56,-67,41,45
20350,43,-419,-4032,1027,-314,-164,-34,-67,41,45
20360,44,-39,-4369,705,-441,-77,-13,-63,45,41
20370,45,353,-4899,281,-477,-77,28,-63,45,41
20380,46,809,-5332,79,-450,52,97,-67,43,39
20390,47,864,-5769,-215,-402,182,152,-67,43,39
20400,48,478,-5971,-300,-194,209,160,-68,40,38
20410,49,-134,-5801,-104,258,39,128,-68,40,38
20420,50,-963,-5430,803,555,-247,85,-63,45,43
20430,51,-1754,-5056,2376,99,-339,70,-63,45,43
20440,52,-1416,-5654,1794,-851,-497,227,-65,39,41
20450,53,-659,-6248,1082,-1192,-375,485,-65,39,41
20460,54,678,-6285,1940,-1256,-9,785,-62,42,42
20470,55,1177,-5998,3675,-1494,581,1052,-62,42,42
20480,56,1531,-5803,4493,-1582,1041,1282,-64,44,46
20490,57,1917,-5389,3251,-1096,1280,1470,-64,44,46
20500,58,1426,-3483,2048,-285,1874,1375,-59,49,47
20510,59,920,-2531,2298,-211,1550,1114,-59,49,47
20520,60,516,-2567,3077,-773,878,833,-53,53,49
20530,61,13,-4430,2640,-1195,200,622,-53,53,49
20540,62,-884,-6604,2417,-977,-19,512,-55,49,51
20550,63,-2145,-8170,1959,-313,165,418,-55,49,51
20560,64,-2799,-7951,1564,534,177,272,-51,53,51
20570,65,-2950,-6196,1884,964,-173,78,-51,53,51
20580,66,-2154,-4766,2066,1047,-498,-53,-51,51,53
20590,67,-1143,-4199,1976,801,-570,-161,-51,51,53
20600,68,-321,-4214,1574,534,-612,-280,-45,51,51
20610,69,286,-4172,1124,500,-615,-342,-45,51,51
20620,70,578,-4148,1041,712,-520,-302,-50,52,46
20630,71,655,-3828,1142,931,-389,-199,-50,52,46
20640,72,620,-3417,1438,937,-181,-84,-49,47,43
20650,73,646,-3141,1378,745,-23,-1,-49,47,43
20660,74,657,-2862,1261,477,107,41,-48,46,44
20670,75,784,-2530,1164,179,241,74,-48,46,44
20680,76,833,-2293,1142,24,143,56,-54,46,44
20690,77,550,-2353,1351,14,145,-21,-54,46,44
20700,78,414,-2400,1300,88,229,-132,-57,49,45
20710,79,384,-2287,1109,164,352,-247,-57,49,45
20720,80,282,-2231,970,176,395,-321,-47,51,45
20730,81,267,-2250,729,297,385,-372,-47,51,45
20740,82,190,-2279,756,403,409,-371,-54,44,40
20750,83,130,-2170,714,433,438,-348,-54,44,40
20760,84,16,-2149,736,338,452,-289,-52,44,44
20770,85,-139,-2265,666,232,428,-199,-52,44,44
20780,86,-198,-2375,666,140,453,-92,-50,46,38
20790,87,-232,-2360,577,103,491,24,-50,46,38
20800,88,-284,-2483,527,111,471,123,-52,44,42
20810,89,-291,-2666,501,158,430,219,-52,44,42
20820,90,-398,-2790,500,303,431,296,-47,41,35
20830,91,-211,-3149,543,473,411,360,-47,41,35
20840,92,-218,-3182,684,725,457,406,-54,46,32
20850,93,-45,-3363,889,948,425,425,-54,46,32
20860,94,-23,-3198,1130,1192,540,409,-49,45,37
20870,95,184,-3163,1198,1239,534,351,-49,45,37
20880,96,8,-3231,1369,1167,578,266,-48,46,34
20890,97,-24,-3469,1517,1012,619,174,-48,46,34
20900,98,-221,-3790,1463,791,603,87,-43,41,31
20910,99,-454,-3950,1475,488,613,-1,-43,41,31
20920,100,-670,-4175,1421,74,459,-75,-48,42,30
20930,101,-960,-4350,1026,-355,202,-115,-48,42,30
20940,102,-1232,-4638,611,-809,60,-128,-45,43,25
20950,103,-1340,-4957,339,-1049,-5,-137,-45,43,25
20960,104,-1208,-5162,41,-890,-78,-147,-50,44,22
20970,105,-903,-5334,-194,-357,-111,-172,-50,44,22
20980,106,-491,-5521,203,168,-24,-207,-47,47,25
20990,107,-7,-5298,1440,186,228,-253,-47,47,25
21000,108,72,-5051,2828,-266,456,-334,-46,44,30
21010,109,31,-5439,2909,-1236,698,-548,-46,44,30
21020,110,-494,-5174,1804,-1606,300,-782,-51,47,33
21030,111,-1549,-5219,2799,-1553,-70,-985,-51,47,33
21040,112,-2142,-5774,3273,-2167,-681,-1198,-53,47,33
21050,113,-2763,-6094,3190,-2162,-1100,-1352,-53,47,33
21060,114,-2187,-5531,2535,-1129,-1402,-1346,-56,46,40
21070,115,-1655,-3979,1887,-297,-1821,-1154,-56,46,40
21080,116,-1398,-2837,1973,112,-2022,-823,-56,48,46
21090,117,-1054,-2394,2903,155,-1576,-513,-56,48,46
21100,118,-533,-3807,3448,-407,-829,-278,-57,49,43
21110,119,361,-5807,2815,-842,-274,-140,-57,49,43
21120,120,1698,-7488,1922,-642,-132,20,-60,44,52
21130,121,2432,-7856,2042,-18,-337,229,-60,44,52
21140,122,1941,-6332,2298,499,-160,376,-62,44,48
21150,123,901,-4897,2382,724,107,379,-62,44,48
21160,124,60,-4208,2230,489,114,278,-62,52,50
21170,125,-565,-3890,1925,114,89,129,-62,52,50
21180,126,-868,-3761,1631,-84,112,27,-59,41,49
21190,127,-856,-3618,1497,-133,150,-28,-59,41,49
21200,128,-650,-3589,1371,-84,173,-95,-58,38,46
21210,129,-390,-3565,1248,70,182,-132,-58,38,46
21220,130,-199,-3450,1131,261,210,-153,-63,45,49
21230,131,-191,-3260,1053,377,149,-144,-63,45,49
21240,132,-307,-3004,1136,399,85,-123,-61,47,47
21250,133,-501,-2752,1047,371,-3,-74,-61,47,47
21260,134,-722,-2556,1049,347,-6,-19,-62,48,46
21270,135,-802,-2429,950,363,-61,51,-62,48,46
21280,136,-813,-2179,787,335,-105,115,-55,47,43
21290,137,-824,-2109,830,273,-65,172,-55,47,43
21300,138,-705,-1898,725,245,-107,208,-63,45,51
21310,139,-664,-1934,687,215,-138,203,-63,45,51
21320,140,-606,-1998,702,156,-137,166,-57,41,41
21330,141,-506,-2062,612,63,-122,91,-57,41,41
21340,142,-367,-2158,602,-37,-147,-14,-60,40,44
21350,143,-280,-2368,557,-105,-176,-142,-60,40,44
21360,144,-216,-2621,533,-110,-248,-263,-62,42,46
21370,145,-249,-2786,454,-3,-335,-365,-62,42,46
21380,146,-369,-3004,457,122,-407,-441,-61,45,43
21390,147,-449,-3216,502,276,-491,-464,-61,45,43
21400,148,-438,-3331,468,476,-628,-447,-65,45,49
21410,149,-631,-3409,640,602,-669,-399,-65,45,49
21420,150,-717,-3310,473,841,-740,-319,-69,41,41
21430,151,-944,-3519,654,1017,-692,-237,-69,41,41
21440,152,-946,-3501,967,872,-570,-172,-69,45,39
21450,153,-695,-3733,1293,516,-425,-142,-69,45,39
21460,154,-440,-4168,1420,75,-266,-125,-60,34,40
21470,155,-119,-4518,1465,-308,-230,-85,-60,34,40
21480,156,272,-4880,1268,-474,-191,-37,-69,35,37
21490,157,614,-5096,997,-431,-49,-22,-69,35,37
21500,158,748,-5241,555,-265,53,-5,-65,37,41
21510,159,719,-5425,622,-242,207,28,-65,37,41
21520,160,579,-5617,310,-223,334,44,-69,45,45
21530,161,240,-5853,66,-51,365,52,-69,45,45
21540,162,-387,-5884,264,253,199,36,-66,38,42
21550,163,-1120,-5999,1463,326,18,56,-66,38,42
21560,164,-1539,-6283,2634,-310,-140,157,-66,38,42
21570,165,-991,-7054,2136,-1084,-27,395,-66,38,42
21580,166,68,-7272,1698,-1018,106,658,-64,42,42
21590,167,1438,-7021,1607,-674,605,893,-64,42,42
21600,168,1241,-5787,2518,-850,1048,1033,-62,42,44
21610,169,565,-4811,2834,-1041,1333,1032,-62,42,44
21620,170,44,-3566,2354,-843,1638,868,-62,44,50
21630,171,-465,-2786,2212,-654,1711,660,-62,44,50
21640,172,-473,-2175,2400,-485,1361,478,-57,41,53
21650,173,-364,-2262,2582,-259,840,369,-57,41,53
21660,174,-454,-3060,2684,-467,232,405,-57,45,43
21670,175,-625,-4191,2851,-1187,-233,536,-57,45,43
21680,176,-983,-5885,2803,-1473,-289,643,-52,42,44
21690,177,-1616,-7302,1832,-681,141,644,-52,42,44
21700,178,-1708,-7204,1418,394,319,528,-53,43,51
21710,179,-1740,-5417,1796,1026,-93,303,-53,43,51
21720,180,-1448,-4051,2166,1164,-313,133,-55,49,43
21730,181,-977,-3419,1876,965,-343,-51,-55,49,43
21740,182,-280,-3323,1268,678,-324,-235,-52,44,46
21750,183,132,-3350,1031,548,-322,-366,-52,44,46
21760,184,340,-3402,1140,563,-302,-392,-51,47,51
21770,185,338,-3251,1344,657,-264,-348,-51,47,51
21780,186,320,-3022,1533,679,-267,-285,-55,45,47
21790,187,295,-2889,1550,577,-209,-225,-55,45,47
21800,188,348,-2636,1329,427,-94,-182,-49,43,45
21810,189,470,-2475,1120,233,-28,-168,-49,43,45
21820,190,436,-2333,1258,92,4,-187,-63,43,45
21830,191,545,-2136,1241,-4,166,-236,-63,43,45
21840,192,602,-1937,1157,-33,232,-291,-49,43,43
21850,193,649,-1962,1104,-2,274,-336,-49,43,43
21860,194,549,-1992,1009,78,292,-356,-57,39,47
21870,195,413,-2083,961,195,294,-343,-57,39,47
21880,196,314,-2396,906,270,313,-298,-53,39,41
21890,197,185,-2700,815,265,401,-193,-53,39,41
21900,198,41,-2886,706,259,506,-70,-57,43,41
21910,199,-60,-3127,643,220,631,83,-57,43,41
21920,200,-143,-3163,589,179,709,222,-59,43,45
21930,201,-255,-3071,514,198,742,333,-59,43,45
21940,202,-347,-3077,441,279,716,407,-54,38,44
21950,203,-409,-2973,444,435,730,443,-54,38,44
21960,204,-389,-2915,458,604,720,450,-47,39,41
21970,205,-419,-2899,562,734,732,427,-47,39,41
21980,206,-407,-3018,548,737,725,407,-56,40,40
21990,207,-344,-3189,556,679,679,391,-56,40,40
22000,208,-307,-3375,712,569,619,364,-51,35,37
22010,209,-243,-3537,993,455,561,303,-51,35,37
22020,210,-255,-3814,1301,441,578,211,-50,40,34
22030,211,-310,-3974,1530,481,528,114,-50,40,34
22040,212,-486,-4180,1476,439,494,0,-46,42,30
22050,213,-702,-4244,1408,281,391,-105,-46,42,30
22060,214,-970,-4070,1184,5,185,-191,-45,43,29
22070,215,-1021,-4216,903,-415,-12,-224,-45,43,29
22080,216,-1112,-4554,646,-876,-177,-238,-45,35,27
22090,217,-1181,-4782,474,-973,-318,-236,-45,35,27
22100,218,-1070,-4941,383,-650,-420,-233,-46,40,32
22110,219,-734,-4858,246,-88,-399,-228,-46,40,32
22120,220,-321,-4779,872,312,-227,-205,-50,40,34
22130,221,50,-4493,1774,223,36,-177,-50,40,34
22140,222,220,-4289,2519,-229,242,-208,-51,39,39
22150,223,236,-4720,2542,-983,486,-381,-51,39,39
22160,224,-214,-4882,1698,-1524,274,-598,-47,33,27
22170,225,-1162,-4785,2099,-1407,-155,-782,-47,33,27
22180,226,-1377,-5527,2491,-1680,-474,-957,-48,42,34
22190,227,-1041,-5075,1866,-1412,-934,-954,-48,42,34
22200,228,-860,-4279,3180,-851,-1086,-852,-56,40,40
22210,229,-996,-3579,4517,-909,-614,-799,-56,40,40
22220,230,-1139,-3711,2991,-911,-144,-766,-54,38,40
22230,231,-1579,-4236,2018,-570,-154,-700,-54,38,40
22240,232,-1780,-5218,1948,-386,-194,-618,-61,39,45
22250,233,-1275,-6380,1570,-359,-266,-530,-61,39,45
22260,234,-183,-6945,1932,-139,-265,-398,-59,39,47
22270,235,821,-6517,2567,-2,-41,-242,-59,39,47
22280,236,1333,-5625,2357,-1,215,-109,-52,40,48
22290,237,1302,-5184,1746,73,349,-35,-52,40,48
22300,238,829,-4776,1457,168,334,-26,-60,40,46
22310,239,245,-4442,1368,204,340,-38,-60,40,46
22320,240,-312,-4208,1471,172,437,-63,-59,35,47
22330,241,-550,-3992,1483,143,511,-107,-59,35,47
22340,242,-495,-3767,1260,169,506,-168,-60,40,44
22350,243,-534,-3733,1044,229,404,-194,-60,40,44
22360,244,-574,-3461,1042,385,214,-178,-62,36,46
22370,245,-722,-3267,1067,456,21,-134,-62,36,46
22380,246,-994,-2944,1036,477,-150,-59,-61,41,47
22390,247,-1201,-2745,1002,407,-251,51,-61,41,47
22400,248,-1487,-2629,924,349,-275,157,-57,33,41
22410,249,-1527,-2472,917,326,-214,244,-57,33,41
22420,250,-1464,-2285,823,301,-188,299,-54,28,40
22430,251,-1400,-2237,938,233,-216,314,-54,28,40
22440,252,-1267,-2222,953,176,-292,294,-64,32,38
22450,253,-1062,-2322,885,130,-311,248,-64,32,38
22460,254,-770,-2439,684,110,-385,183,-66,30,40
22470,255,-580,-2452,524,76,-454,84,-66,30,40
22480,0,-346,-2553,438,2,-550,-36,-60,32,38
22490,1,-215,-2678,293,-27,-640,-161,-60,32,38
22500,2,-29,-2815,192,28,-743,-266,-57,33,35
22510,3,23,-2848,154,142,-763,-347,-57,33,35
22520,4,191,-2947,105,270,-794,-399,-63,29,35
22530,5,226,-3035,125,438,-748,-438,-63,29,35
22540,6,207,-2963,195,633,-736,-459,-68,30,36
22550,7,53,-3045,275,819,-754,-469,-68,30,36
22560,8,-197,-3150,573,894,-716,-439,-63,33,43
22570,9,-362,-2996,1041,840,-651,-370,-63,33,43
22580,10,-478,-3127,1385,591,-510,-285,-66,26,42
22590,11,-532,-3321,1299,242,-384,-207,-66,26,42
22600,12,-586,-3620,1071,-19,-375,-131,-68,24,40
22610,13,-526,-3925,1241,-197,-312,-67,-68,24,40
22620,14,-354,-4105,951,-370,-225,-38,-67,29,37
22630,15,-157,-4522,460,-536,-136,-5,-67,29,37
22640,16,220,-5019,201,-638,-32,61,-68,30,36
22650,17,309,-5461,-51,-571,-37,136,-68,30,36
22660,18,27,-5740,-66,-290,-128,194,-66,26,38
22670,19,-396,-5567,-142,260,-237,188,-66,26,38
22680,20,-1013,-5144,490,573,-377,138,-72,26,42
22690,21,-1628,-4832,1183,203,-476,78,-72,26,42
22700,22,-1924,-4549,3163,-716,-630,109,-69,25,39
22710,23,-1361,-5434,3787,-1806,-776,413,-69,25,39
22720,24,674,-7308,2318,-2614,-140,1201,-67,27,35
22730,25,3594,-7930,2431,-1906,743,1734,-67,27,35
22740,26,3342,-7443,4474,-1633,1461,2020,-68,32,44
22750,27,1649,-5094,3104,-582,2169,1997,-68,32,44
22760,28,1094,-2690,2523,-241,2086,1660,-63,37,43
22770,29,226,-1797,2539,-694,1112,1192,-63,37,43
22780,30,-546,-2469,3050,-800,353,661,-56,40,48
22790,31,-1023,-3987,2803,-985,-196,279,-56,40,48
22800,32,-2131,-6315,2532,-1244,-389,160,-57,45,45
22810,33,-3179,-7710,1921,-601,-132,90,-57,45,45
22820,34,-3089,-7075,1578,369,29,-25,-50,42,50
22830,35,-2326,-6095,2337,714,-431,-137,-50,42,50
22840,36,-1384,-4852,2617,733,-678,-170,-49,45,47
22850,37,-377,-4421,2292,530,-628,-203,-49,45,47
22860,38,528,-4726,1672,347,-550,-266,-54,42,50
22870,39,1000,-4564,1404,400,-479,-251,-54,42,50
22880,40,992,-4399,1453,603,-458,-125,-54,44,50
22890,41,837,-4163,1620,737,-391,44,-54,44,50
22900,42,667,-3900,1527,702,-286,180,-57,35,51
22910,43,738,-3609,1309,580,-238,253,-57,35,51
22920,44,691,-3406,1368,305,-84,250,-52,44,42
22930,45,588,-3133,1268,88,12,200,-52,44,42
22940,46,462,-2996,1209,63,31,121,-54,42,44
22950,47,305,-2852,1191,203,0,15,-54,42,44
22960,48,81,-2796,1295,377,77,-116,-57,37,47
22970,49,17,-2711,1149,480,154,-249,-57,37,47
22980,50,58,-2623,1027,551,235,-352,-58,36,46
22990,51,172,-2600,922,570,332,-392,-58,36,46
23000,52,293,-2574,794,591,341,-372,-52,42,44
23010,53,294,-2525,845,500,367,-312,-52,42,44
23020,54,313,-2417,789,348,410,-227,-57,37,43
23030,55,188,-2352,771,227,486,-135,-57,37,43
23040,56,207,-2344,734,114,548,-52,-59,39,39
23050,57,33,-2423,671,90,658,13,-59,39,39
23060,58,-41,-2585,546,124,647,78,-59,39,39
23070,59,-62,-2814,561,215,609,120,-59,39,39
23080,60,-199,-3019,601,398,635,131,-56,34,40
23090,61,-125,-3152,551,642,650,114,-56,34,40
23100,62,-47,-3231,649,896,642,79,-56,36,34
23110,63,37,-3220,774,1075,520,55,-56,36,34
23120,64,105,-3146,901,1202,421,36,-58,34,36
23130,65,75,-3103,1028,1221,428,12,-58,34,36
23140,66,-48,-2955,1275,1092,543,-24,-52,32,30
23150,67,-88,-2906,1464,927,702,-59,-52,32,30
23160,68,-251,-2989,1512,720,777,-93,-55,37,27
23170,69,-399,-3099,1486,560,889,-130,-55,37,27
23180,70,-367,-3322,1252,268,805,-172,-47,37,23
23190,71,-549,-3598,973,-56,673,-193,-47,37,23
23200,72,-780,-4016,846,-459,517,-177,-53,33,23
23210,73,-1023,-4624,696,-843,395,-158,-53,33,23
23220,74,-1247,-5281,539,-996,319,-152,-53,35,23
23230,75,-1351,-5774,219,-750,230,-157,-53,35,23
23240,76,-1267,-6119,-117,-151,170,-154,-51,37,29
23250,77,-947,-6075,240,362,245,-135,-51,37,29
23260,78,-391,-5993,637,520,402,-109,-46,32,26
23270,79,84,-5675,1380,350,542,-131,-46,32,26
23280,80,177,-5211,1973,-126,493,-220,-49,33,23
23290,81,-239,-4923,2169,-781,321,-355,-49,33,23
23300,82,-1009,-4865,2376,-1182,38,-510,-49,33,23
23310,83,-1806,-5213,2751,-1519,-271,-728,-49,33,23
23320,84,-2062,-5434,2630,-1810,-523,-944,-47,39,31
23330,85,-1559,-4886,2181,-1543,-874,-1016,-47,39,31
23340,86,-945,-3955,2487,-936,-1272,-924,-54,36,30
23350,87,-360,-3107,2542,-579,-1207,-766,-54,36,30
23360,88,-144,-2475,2611,-472,-861,-592,-57,43,31
23370,89,-152,-2465,2429,-449,-534,-468,-57,43,31
23380,90,-432,-3012,2518,-423,-319,-423,-53,37,31
23390,91,-660,-4196,2679,-659,-11,-442,-53,37,31
23400,92,-416,-6086,1835,-882,-29,-384,-60,36,40
23410,93,-88,-7171,921,-454,-226,-214,-60,36,40
23420,94,228,-6819,1580,281,-308,-5,-62,40,42
23430,95,-7,-5118,2099,543,-236,159,-62,40,42
23440,96,-404,-4359,1977,433,-341,251,-54,42,32
23450,97,-692,-4032,1724,137,-523,247,-54,42,32
23460,98,-801,-3916,1509,-94,-508,179,-61,39,37
23470,99,-588,-3833,1400,-125,-390,117,-61,39,37
23480,100,-365,-3691,1513,-85,-301,65,-60,32,38
23490,101,-127,-3634,1514,-92,-286,20,-60,32,38
23500,102,22,-3588,1325,-119,-286,2,-63,41,39
23510,103,5,-3578,1157,28,-292,-6,-63,41,39
23520,104,-22,-3354,1116,138,-326,11,-60,36,38
23530,105,-265,-3169,1061,233,-398,39,-60,36,38
23540,106,-522,-3000,1092,263,-436,77,-59,41,43
23550,107,-769,-2895,1045,252,-427,137,-59,41,43
23560,108,-901,-2900,1004,215,-357,221,-61,41,39
23570,109,-862,-2825,963,189,-332,294,-61,41,39
23580,110,-666,-2766,860,152,-334,328,-61,41,41
23590,111,-522,-2784,841,105,-293,323,-61,41,41
23600,112,-290,-2660,881,57,-259,275,-60,38,34
23610,113,-43,-2722,713,-29,-217,202,-60,38,34
23620,114,27,-2761,583,-105,-206,97,-63,33,39
23630,115,36,-2785,529,-131,-203,-22,-63,33,39
23640,116,-22,-2803,499,-117,-261,-143,-57,39,39
23650,117,-55,-2764,520,-69,-300,-255,-57,39,39
23660,118,-172,-2837,540,12,-291,-336,-61,41,39
23670,119,-187,-2885,479,132,-286,-388,-61,41,39
23680,120,-204,-3040,468,259,-244,-409,-59,37,39
23690,121,-304,-3131,476,416,-243,-392,-59,37,39
23700,122,-445,-3253,525,519,-224,-366,-64,36,42
23710,123,-549,-3246,628,616,-294,-352,-64,36,42
23720,124,-745,-3290,709,632,-347,-341,-61,39,37
23730,125,-775,-3231,536,621,-377,-315,-61,39,37
23740,126,-892,-3455,948,676,-421,-284,-69,35,39
23750,127,-696,-3654,1162,534,-361,-251,-69,35,39
23760,128,-409,-3825,1209,422,-397,-195,-68,38,40
23770,129,-137,-4252,1347,215,-308,-137,-68,38,40
23780,130,229,-4548,1240,-126,-179,-101,-65,37,41
23790,131,525,-4865,935,-418,-26,-101,-65,37,41
23800,132,648,-4943,634,-496,65,-101,-61,31,37
23810,133,529,-5031,508,-423,141,-67,-61,31,37
23820,134,398,-5243,359,-345,303,-23,-70,38,34
23830,135,118,-5434,168,-237,422,0,-70,38,34
23840,136,-282,-5596,47,12,460,16,-68,38,38
23850,137,-598,-5523,-146,478,262,19,-68,38,38
23860,138,-1302,-5522,398,764,-78,61,-64,32,36
23870,139,-2171,-5266,1460,457,-367,112,-64,32,36
23880,140,-2210,-5057,1697,-356,-471,193,-66,38,32
23890,141,-1708,-5234,1459,-1041,-438,345,-66,38,32
23900,142,-538,-5598,1493,-1304,-450,586,-67,33,37
23910,143,616,-6054,1863,-1532,-151,885,-67,33,37
23920,144,1149,-5927,3044,-1636,170,1119,-62,40,44
23930,145,1511,-5949,3912,-1650,443,1295,-62,40,44
23940,146,1296,-5127,2992,-855,1000,1379,-62,46,48
23950,147,1038,-3351,2545,-16,1540,1227,-62,46,48
23960,148,773,-2591,2908,-61,1300,968,-56,46,46
23970,149,452,-2697,2732,-262,810,720,-56,46,46
23980,150,181,-3307,2118,-470,424,539,-54,40,42
23990,151,-217,-4288,1932,-475,27,414,-54,40,42
24000,152,-784,-5636,2592,-492,-194,352,-52,42,48
24010,153,-1625,-6304,2365,-347,-29,250,-52,42,48
24020,154,-1981,-6106,1842,139,110,95,-54,48,48
24030,155,-1854,-5242,1627,689,-62,-44,-54,48,48
24040,156,-1371,-4399,1918,891,-293,-136,-49,49,47
24050,157,-716,-3866,1824,738,-368,-214,-49,49,47
24060,158,-118,-3775,1408,516,-277,-286,-54,46,44
24070,159,445,-3860,1055,486,-199,-323,-54,46,44
24080,160,667,-3734,1083,590,-112,-275,-54,38,42
24090,161,723,-3511,1289,654,-73,-174,-54,38,42
24100,162,710,-3227,1385,623,-33,-74,-56,48,42
24110,163,629,-3028,1432,512,10,-9,-56,48,42
24120,164,558,-2969,1474,385,66,22,-54,48,40
24130,165,381,-2844,1338,278,122,11,-54,48,40
24140,166,61,-2710,1302,246,154,-51,-53,47,45
24150,167,116,-2721,1301,198,154,-157,-53,47,45
24160,168,12,-2708,1209,205,258,-259,-53,45,41
24170,169,15,-2691,1044,262,255,-342,-53,45,41
24180,170,34,-2667,948,331,272,-389,-49,39,43
24190,171,77,-2742,826,357,220,-378,-49,39,43
24200,172,115,-2773,845,358,209,-331,-59,45,35
24210,173,85,-2790,838,356,213,-241,-59,45,35
24220,174,-25,-2864,799,277,253,-129,-53,45,37
24230,175,-67,-2805,762,194,293,-21,-53,45,37
24240,176,-88,-2833,638,139,325,89,-55,43,33
24250,177,-189,-2888,581,184,329,169,-55,43,33
24260,178,-281,-3030,559,269,301,245,-58,42,36
24270,179,-427,-3213,649,406,309,298,-58,42,36
24280,180,-438,-3274,649,612,322,319,-45,37,39
24290,181,-384,-3443,656,782,324,327,-45,37,39
24300,182,-317,-3430,709,877,292,344,-54,38,38
24310,183,-150,-3330,773,882,238,358,-54,38,38
24320,184,-57,-3087,892,783,252,368,-51,41,31
24330,185,79,-2966,1003,654,280,367,-51,41,31
24340,186,131,-3053,1113,577,275,345,-51,39,31
24350,187,108,-3244,1247,578,251,303,-51,39,31
24360,188,-126,-3462,1357,620,214,238,-51,41,27
24370,189,-623,-3858,1667,519,143,173,-51,41,27
24380,190,-830,-4096,1829,277,140,98,-46,42,26
24390,191,-887,-4324,1547,-116,116,62,-46,42,26
24400,192,-919,-4504,959,-513,73,40,-47,35,23
24410,193,-974,-4600,466,-829,-41,29,-47,35,23
24420,194,-940,-4767,380,-983,-167,12,-43,35,27
24430,195,-819,-4862,278,-806,-255,-19,-43,35,27
24440,196,-688,-5005,506,-252,-247,-76,-44,34,26
24450,197,-520,-5213,1450,-1,24,-153,-44,34,26
24460,198,-281,-5352,2149,-322,266,-275,-46,42,32
24470,199,-142,-5566,1933,-841,411,-483,-46,42,32
24480,200,-65,-5525,1577,-1203,293,-705,-43,37,31
24490,201,-390,-5516,1616,-1533,-65,-853,-43,37,31
24500,202,-658,-5642,2187,-1858,-408,-962,-44,40,28
24510,203,-629,-5229,3067,-1789,-557,-1036,-44,40,28
24520,204,-681,-4735,3778,-1466,-658,-1087,-46,46,38
24530,205,-779,-4257,2752,-1103,-585,-1138,-46,46,38
24540,206,-1061,-3614,2034,-638,-869,-1046,-56,42,36
24550,207,-1351,-3088,2529,-325,-798,-882,-56,42,36
24560,208,-1308,-3224,2664,-363,-366,-724,-56,40,42
24570,209,-897,-4296,2639,-595,-24,-592,-56,40,42
24580,210,-163,-5766,2411,-780,127,-458,-61,39,39
24590,211,494,-6703,1733,-458,-38,-294,-61,39,39
24600,212,781,-6574,1878,96,-134,-133,-63,41,43
24610,213,657,-5539,2061,417,-16,11,-63,41,43
24620,214,227,-4608,1934,498,2,81,-60,42,52
24630,215,-258,-4144,1833,405,-106,74,-60,42,52
24640,216,-574,-3920,1616,251,-165,57,-62,44,42
24650,217,-675,-3784,1506,121,-159,44,-62,44,42
24660,218,-599,-3710,1463,7,-102,41,-63,45,45
24670,219,-448,-3664,1290,-9,-97,50,-63,45,45
24680,220,-352,-3620,1287,90,-90,81,-64,40,46
24690,221,-218,-3478,1229,192,-81,127,-64,40,46
24700,222,-273,-3219,1232,299,-136,165,-60,44,42
24710,223,-297,-3048,1141,300,-219,203,-60,44,42
24720,224,-518,-2850,1059,281,-281,247,-60,40,42
24730,225,-710,-2643,930,251,-302,298,-60,40,42
24740,226,-766,-2550,889,195,-282,342,-56,44,44
24750,227,-716,-2346,805,136,-171,366,-56,44,44
24760,228,-536,-2348,811,69,-124,365,-64,44,40
24770,229,-457,-2375,705,76,-63,328,-64,44,40
24780,230,-295,-2512,692,93,-30,273,-55,37,39
24790,231,-207,-2598,668,66,-2,211,-55,37,39
24800,232,-150,-2664,559,7,-2,124,-57,43,41
24810,233,-84,-2818,523,-22,29,9,-57,43,41
24820,234,-72,-2896,495,-28,2,-112,-57,41,45
24830,235,-121,-3064,367,56,-14,-230,-57,41,45
24840,236,-200,-3199,382,168,-27,-333,-57,47,39
24850,237,-268,-3276,345,296,-100,-424,-57,47,39
24860,238,-346,-3421,364,416,-145,-489,-55,43,41
24870,239,-438,-3303,383,582,-307,-516,-55,43,41
24880,240,-716,-3277,491,705,-309,-530,-56,44,38
24890,241,-757,-3188,457,925,-459,-508,-56,44,38
24900,242,-953,-3214,649,1010,-405,-490,-63,39,39
24910,243,-955,-3300,1089,906,-349,-457,-63,39,39
24920,244,-638,-3471,1363,598,-214,-430,-60,44,40
24930,245,-300,-3848,1530,154,-93,-380,-60,44,40
24940,246,241,-4240,1384,-234,-31,-297,-65,41,41
24950,247,711,-4632,1212,-439,-3,-195,-65,41,41
24960,248,1010,-4833,928,-484,92,-114,-67,31,31
24970,249,940,-4858,693,-405,176,-36,-67,31,31
24980,250,637,-5072,721,-389,330,51,-63,39,35
24990,251,346,-5430,467,-441,521,112,-63,39,35
25000,252,-145,-5711,131,-284,631,124,-66,38,38
25010,253,-625,-5849,-88,205,567,112,-66,38,38
25020,254,-1185,-5816,-210,856,215,127,-62,38,36
25030,255,-1828,-5737,-210,1118,-367,194,-62,38,36
25040,0,-2856,-5577,531,768,-716,250,-63,39,39
25050,1,-3314,-4931,1230,-24,-808,260,-63,39,39
25060,2,-2852,-4570,1984,-950,-698,307,-57,39,37
25070,3,-1593,-5037,2317,-1666,-434,489,-57,39,37
25080,4,514,-6197,2312,-2340,-126,857,-61,35,37
25090,5,2536,-7036,1484,-1895,218,1241,-61,35,37
25100,6,3093,-6277,2989,-1049,589,1417,-60,44,42
25110,7,2107,-4636,3203,-369,1033,1330,-60,44,42
25120,8,1047,-2936,2619,107,1368,1065,-57,41,47
25130,9,778,-2136,2581,82,1392,751,-57,41,47
25140,10,334,-2212,2708,18,1043,463,-54,46,40
25150,11,84,-2460,2288,66,578,235,-54,46,40
25160,12,-100,-3303,2161,-138,52,141,-52,46,44
25170,13,-628,-4561,2817,-703,-339,167,-52,46,44
25180,14,-1241,-6185,3009,-1113,-319,183,-51,43,41
25190,15,-1887,-6861,1753,-645,42,117,-51,43,41
25200,16,-1853,-6374,1338,345,58,49,-42,48,40
25210,17,-1567,-4959,1615,894,-191,-7,-42,48,40
25220,18,-1103,-3916,1972,907,-232,-34,-47,43,47
25230,19,-383,-3532,1548,603,-199,-108,-47,43,47
25240,20,215,-3510,1042,360,-165,-185,-49,47,43
25250,21,562,-3622,891,276,-137,-185,-49,47,43
25260,22,598,-3702,1110,299,-123,-101,-51,41,45
25270,23,533,-3609,1240,322,-64,6,-51,41,45
25280,24,419,-3538,1313,333,-27,92,-52,46,42
25290,25,477,-3422,1281,381,58,149,-52,46,42
25300,26,438,-3231,1312,373,141,154,-48,44,38
25310,27,275,-3060,1295,314,250,114,-48,44,38
25320,28,256,-2806,1273,245,275,19,-44,42,42
25330,29,198,-2590,1242,160,299,-104,-44,42,42
25340,30,165,-2485,1043,90,263,-223,-51,41,41
25350,31,58,-2368,848,88,227,-311,-51,41,41
25360,32,-62,-2346,732,155,148,-330,-51,39,41
25370,33,-123,-2400,696,239,78,-296,-51,39,41
25380,34,-161,-2458,816,287,53,-223,-48,44,40
25390,35,-221,-2647,763,297,87,-126,-48,44,40
25400,36,-277,-2726,858,308,155,-16,-52,38,38
25410,37,-188,-2799,870,307,288,90,-52,38,38
25420,38,-132,-2705,864,344,382,170,-52,42,40
25430,39,-231,-2763,827,393,379,233,-52,42,40
25440,40,-216,-2962,861,486,356,273,-51,41,31
25450,41,-313,-3163,923,633,346,287,-51,41,31
25460,42,-275,-3466,889,883,427,267,-46,44,38
25470,43,-267,-3516,934,1155,481,232,-46,44,38
25480,44,-107,-3532,980,1206,468,207,-48,42,32
25490,45,-7,-3471,905,1054,393,205,-48,42,32
25500,46,165,-3506,828,783,342,229,-43,39,27
25510,47,89,-3495,882,565,352,234,-43,39,27
25520,48,84,-3643,1260,436,344,214,-51,35,25
25530,49,-259,-3759,1431,389,259,167,-51,35,25
25540,50,-787,-4032,1656,276,159,89,-44,42,26
25550,51,-1218,-4216,1812,61,110,-12,-44,42,26
25560,52,-1538,-4248,1566,-202,55,-87,-42,40,24
25570,53,-1497,-4412,964,-541,24,-123,-42,40,24
25580,54,-1181,-4520,408,-819,-91,-128,-51,37,25
25590,55,-855,-4677,171,-866,-299,-106,-51,37,25
25600,56,-529,-5026,182,-615,-446,-85,-46,44,26
25610,57,-177,-5383,351,-145,-439,-67,-46,44,26
25620,58,68,-5721,1053,451,-267,-60,-44,40,26
25630,59,189,-5872,2399,424,127,-92,-44,40,26
25640,60,203,-6156,2363,-326,478,-259,-46,38,26
25650,61,3,-5801,1949,-636,256,-440,-46,38,26
25660,62,-857,-5600,2475,-1011,-124,-634,-43,39,25
25670,63,-1664,-5597,2128,-1628,-613,-782,-43,39,25
25680,64,-1821,-5306,1902,-1664,-758,-826,-45,39,27
25690,65,-1030,-4515,1741,-1064,-1234,-740,-45,39,27
25700,66,-559,-3570,2937,-781,-1331,-622,-57,37,31
25710,67,-385,-2907,3580,-728,-915,-521,-57,37,31
25720,68,-275,-2612,2639,-437,-609,-475,-54,42,40
25730,69,-508,-2505,2583,-301,-436,-479,-54,42,40
25740,70,-766,-3268,2945,-429,-57,-547,-54,46,38
25750,71,-667,-4666,2722,-624,261,-638,-54,46,38
25760,72,-102,-6094,1681,-564,124,-628,-53,43,43
25770,73,442,-6783,1464,-172,-135,-477,-53,43,43
25780,74,813,-6101,2220,201,-94,-305,-69,45,41
25790,75,662,-4960,2360,393,142,-183,-69,45,41
25800,76,382,-4442,1912,418,130,-79,-58,38,38
25810,77,-72,-4030,1689,355,-9,-18,-58,38,38
25820,78,-468,-3796,1617,304,-23,12,-57,35,37
25830,79,-484,-3633,1562,245,85,8,-57,35,37
25840,80,-355,-3474,1480,193,111,-7,-58,42,34
25850,81,-270,-3385,1482,162,102,-23,-58,42,34
25860,82,-304,-3211,1510,152,63,-33,-58,36,38
25870,83,-394,-3073,1422,190,37,-33,-58,36,38
25880,84,-454,-2974,1275,242,-20,-18,-56,40,38
25890,85,-642,-2791,1140,256,-84,11,-56,40,38
25900,86,-736,-2605,1133,206,-69,47,-57,35,37
25910,87,-799,-2450,973,183,-61,99,-57,35,37
25920,88,-821,-2314,877,165,-78,134,-55,41,35
25930,89,-773,-2216,858,60,-147,165,-55,41,35
25940,90,-790,-2142,763,-28,-251,174,-59,45,35
25950,91,-702,-2231,714,-82,-306,160,-59,45,35
25960,92,-716,-2394,772,-164,-305,140,-60,40,34
25970,93,-601,-2587,642,-247,-251,103,-60,40,34
25980,94,-456,-2822,551,-285,-278,34,-60,40,36
25990,95,-457,-3042,566,-255,-286,-61,-60,40,36
26000,96,-367,-3235,504,-171,-376,-154,-60,36,38
26010,97,-339,-3366,524,-75,-393,-253,-60,36,38
26020,98,-336,-3533,503,87,-452,-331,-56,44,38
26030,99,-257,-3572,480,342,-549,-371,-56,44,38
26040,100,-335,-3486,562,588,-809,-385,-64,42,40
26050,101,-480,-3174,454,892,-914,-357,-64,42,40
26060,102,-672,-3086,622,1070,-862,-287,-61,39,41
26070,103,-759,-3033,548,982,-721,-218,-61,39,41
26080,104,-764,-3235,575,698,-561,-168,-60,34,32
26090,105,-570,-3253,950,232,-469,-138,-60,34,32
26100,106,-343,-3634,1436,-264,-351,-114,-61,41,41
26110,107,-115,-3949,1282,-466,-328,-83,-61,41,41
26120,108,113,-4326,1289,-487,-253,-45,-61,35,35
26130,109,434,-4610,1082,-401,-142,-14,-61,35,35
26140,110,634,-4946,568,-198,-53,13,-68,34,36
26150,111,681,-5287,310,-90,9,48,-68,34,36
26160,112,524,-5468,168,-45,94,87,-62,32,38
26170,113,296,-5455,97,7,149,115,-62,32,38
26180,114,54,-5425,-26,234,15,129,-66,40,36
26190,115,-632,-5335,-38,577,-273,122,-66,40,36
26200,116,-1470,-5200,736,550,-458,100,-66,38,38
26210,117,-1922,-4847,1526,9,-562,51,-66,38,38
26220,118,-1844,-4756,2492,-805,-653,120,-63,39,37
26230,119,-1024,-5455,2548,-1643,-542,395,-63,39,37
26240,120,887,-6310,2446,-2128,-33,836,-65,39,39
26250,121,2071,-6579,3226,-1844,414,1209,-65,39,39
26260,122,2296,-6208,4194,-1507,934,1469,-64,44,44
26270,123,1740,-4494,3131,-632,1627,1527,-64,44,44
26280,124,1297,-2534,2297,-160,1847,1324,-58,46,48
26290,125,641,-1956,2867,-390,1225,979,-58,46,48
26300,126,-37,-2615,2851,-627,618,571,-59,45,47
26310,127,-506,-4259,2573,-707,246,295,-59,45,47
26320,128,-1219,-6267,2309,-801,-36,187,-55,45,39
26330,129,-1865,-7568,2347,-364,241,127,-55,45,39
26340,130,-2302,-7066,2047,237,509,7,-54,52,44
26350,131,-2066,-5700,2106,656,176,-166,-54,52,44
26360,132,-1527,-4673,2286,758,-191,-251,-55,49,43
26370,133,-773,-4260,2010,653,-244,-307,-55,49,43
26380,134,-76,-4149,1597,504,-159,-357,-53,45,45
26390,135,346,-4173,1338,355,-187,-361,-53,45,45
26400,136,398,-4007,1346,439,-138,-266,-48,46,40
26410,137,416,-3760,1470,593,-69,-106,-48,46,40
26420,138,312,-3511,1616,604,-4,57,-56,50,40
26430,139,207,-3239,1443,526,36,176,-56,50,40
26440,140,354,-2907,1363,446,55,239,-50,44,40
26450,141,316,-2657,1269,319,104,238,-50,44,40
26460,142,326,-2485,1242,231,124,190,-55,45,41
26470,143,343,-2315,1145,252,153,89,-55,45,41
26480,144,307,-2260,1086,323,204,-31,-56,44,36
26490,145,443,-2266,1041,415,220,-165,-56,44,36
26500,146,413,-2287,1042,445,229,-281,-50,48,38
26510,147,391,-2246,886,450,269,-342,-50,48,38
26520,148,304,-2264,868,431,263,-377,-52,44,38
26530,149,168,-2291,904,358,278,-361,-52,44,38
26540,150,38,-2481,968,263,314,-307,-51,41,37
26550,151,-38,-2646,961,170,394,-214,-51,41,37
26560,152,-113,-2719,937,117,486,-110,-52,40,32
26570,153,-36,-2921,911,98,565,-9,-52,40,32
26580,154,-48,-2997,856,169,634,80,-52,44,32
26590,155,-56,-3226,886,343,673,140,-52,44,32
26600,156,-63,-3356,848,546,731,169,-50,44,36
26610,157,-21,-3577,806,815,774,165,-50,44,36
26620,158,-111,-3518,776,1068,826,130,-48,42,34
26630,159,-102,-3366,840,1221,814,90,-48,42,34
26640,160,-116,-3191,829,1228,845,48,-51,43,33
26650,161,34,-2993,720,1069,740,27,-51,43,33
26660,162,-16,-2882,894,899,731,9,-46,36,28
26670,163,13,-2952,1158,727,670,-21,-46,36,28
26680,164,-231,-3262,1300,557,535,-31,-50,36,24
26690,165,-747,-3638,1182,318,329,-51,-50,36,24
26700,166,-1263,-3920,1345,5,340,-79,-47,39,23
26710,167,-1516,-4219,1318,-303,450,-129,-47,39,23
26720,168,-1463,-4596,901,-613,418,-150,-53,33,21
26730,169,-1266,-4879,536,-840,280,-147,-53,33,21
26740,170,-1024,-5164,328,-926,35,-113,-45,39,17
26750,171,-746,-5265,145,-785,-194,-47,-45,39,17
26760,172,-518,-5366,95,-356,-278,17,-41,39,17
26770,173,-198,-5431,185,239,-194,65,-41,39,17
26780,174,128,-5253,1193,586,118,62,-47,39,25
26790,175,197,-4974,2855,385,386,-26,-47,39,25
26800,176,155,-5198,3472,-757,659,-302,-52,40,22
26810,177,-719,-4899,1804,-1585,260,-608,-52,40,22
26820,178,-2031,-4562,1951,-1494,-249,-839,-45,41,23
26830,179,-2488,-5000,2467,-1767,-924,-1067,-45,41,23
26840,180,-1850,-4490,2367,-1692,-1335,-1109,-49,43,29
26850,181,-1087,-3709,3691,-1294,-1360,-1035,-49,43,29
26860,182,-540,-3231,3558,-1194,-928,-964,-49,45,33
26870,183,-635,-3075,2553,-917,-864,-803,-49,45,33
26880,184,-949,-3231,3265,-578,-568,-670,-58,42,34
26890,185,-978,-4886,3464,-515,67,-592,-58,42,34
26900,186,-272,-6980,2257,-566,223,-493,-61,39,35
26910,187,467,-8042,1770,-131,-146,-331,-61,39,35
26920,188,802,-7287,2857,378,-237,-174,-62,42,40
26930,189,791,-5423,2845,424,114,-54,-62,42,40
26940,190,382,-4718,2426,284,155,28,-61,39,35
26950,191,-95,-4485,2010,105,57,33,-61,39,35
26960,192,-410,-4189,1861,9,60,-3,-61,39,35
26970,193,-510,-4046,1820,4,33,-14,-61,39,35
26980,194,-519,-3885,1725,90,17,-5,-62,36,36
26990,195,-460,-3728,1646,193,17,5,-62,36,36
27000,196,-403,-3469,1524,228,-31,14,-59,39,35
27010,197,-391,-3231,1486,282,-86,13,-59,39,35
27020,198,-287,-2996,1417,236,-114,21,-60,44,36
27030,199,-340,-2872,1333,204,-134,40,-60,44,36
27040,200,-518,-2603,1263,160,-157,77,-61,45,35
27050,201,-685,-2465,1137,112,-138,119,-61,45,35
27060,202,-778,-2370,1128,49,-148,170,-60,38,36
27070,203,-698,-2281,1001,33,-84,198,-60,38,36
27080,204,-701,-2178,974,1,-122,221,-63,39,39
27090,205,-550,-2141,894,-16,-151,233,-63,39,39
27100,206,-406,-2112,828,-16,-177,207,-60,44,40
27110,207,-299,-2160,761,-53,-168,157,-60,44,40
27120,208,-195,-2252,614,-119,-107,84,-57,37,37
27130,209,-100,-2335,577,-189,9,-35,-57,37,37
