AccFullScale=8g, GyrFullScale=2000dps, SamplingRate=100Hz, PacketType=RAW
timeStamp,packetCounter, AccX,AccY,AccZ, GyrX,GyrY,GyrZ, MagX,MagY,MagZ 
  2000,0,2053,-11050,278,492,-187,58,-49,19,11
2010,1,1305,-10349,457,1047,16,-16,-49,19,11
2020,2,336,-8788,418,1338,390,-282,55,35,63
2030,3,-280,-8383,498,1345,274,-484,55,35,63
2040,4,-672,-7462,628,1122,-143,-543,57,35,61
2050,5,-816,-6866,1088,582,-470,-561,57,35,61
2060,6,-798,-6830,1126,22,-594,-571,55,37,57
2070,7,-354,-6760,1156,-287,-579,-536,55,37,57
2080,8,358,-6792,536,-106,-382,-455,54,30,58
2090,9,783,-6249,531,132,-355,-311,54,30,58
2100,10,1319,-5522,83,569,-638,-114,50,38,58
2110,11,1578,-4360,144,968,-817,121,50,38,58
2120,12,1146,-3656,591,1140,-891,375,51,39,55
2130,13,849,-2828,655,1132,-1053,587,51,39,55
2140,14,493,-2091,1158,844,-968,756,54,38,48
2150,15,57,-927,1534,701,-955,857,54,38,48
2160,16,2,79,1438,621,-800,924,50,32,54
2170,17,-317,1075,1144,389,-793,940,50,32,54
2180,18,-829,2191,747,-45,-750,880,49,35,49
2190,19,-1020,3424,861,-554,-396,729,49,35,49
2200,20,-943,4149,1376,-882,5,569,52,28,48
2210,21,-153,3929,1246,-534,278,486,52,28,48
2220,22,507,3151,1021,5,347,520,57,35,47
2230,23,641,2543,775,318,227,631,57,35,47
2240,24,744,1876,581,281,144,762,55,29,49
2250,25,546,1281,497,-75,220,857,55,29,49
2260,26,360,799,203,-516,217,847,58,36,52
2270,27,142,249,-349,-850,300,719,58,36,52
2280,28,324,-216,-278,-1064,542,528,65,31,53
2290,29,870,-455,3957,-1136,932,335,65,31,53
2300,30,2672,-1029,6215,386,865,-68,66,30,50
2310,31,17,-1885,16541,-3356,-2301,-686,66,30,50
2320,32,-7868,-4109,-1156,-7170,-1645,-1163,66,30,56
2330,33,-6638,-18250,-424,-20,-3771,-2683,66,30,56
2340,34,-5031,-12254,-68,973,-1143,-3034,61,37,57
2350,35,417,-11837,7729,920,-288,-1496,61,37,57
2360,36,8942,-9946,3953,-62,411,481,53,31,61
2370,37,6489,-6601,103,807,547,679,53,31,61
2380,38,3774,-5941,2495,668,1091,68,55,41,59
2390,39,2911,-6687,963,394,1213,-415,55,41,59
2400,40,-135,-8182,1104,213,407,-444,56,38,60
2410,41,-3002,-10362,696,-16,1140,-551,56,38,60
2420,42,-3090,-10418,597,701,1436,-692,55,45,59
2430,43,-1182,-9902,1408,831,1283,-394,55,45,59
2440,44,-71,-7359,1416,785,920,-72,47,39,55
2450,45,373,-6390,1142,499,817,117,47,39,55
2460,46,416,-6025,1118,229,843,171,62,38,60
2470,47,177,-5897,810,99,928,84,62,38,60
2480,48,-516,-5596,499,108,791,-61,54,44,56
2490,49,-1569,-5539,491,172,506,-201,54,44,56
2500,50,-2367,-5424,885,284,212,-218,55,43,55
2510,51,-2711,-4371,738,521,25,-135,55,43,55
2520,52,-1907,-4080,785,780,-152,12,56,42,58
2530,53,-1211,-2765,449,1067,-348,73,56,42,58
2540,54,-1160,-1155,749,1411,-445,13,60,42,56
2550,55,-1163,150,947,1453,-372,-119,60,42,56
2560,56,-922,1324,515,1075,-457,-302,52,44,54
2570,57,-649,2270,1277,61,-410,-518,52,44,54
2580,58,-263,3335,1449,-1418,-39,-755,55,39,53
2590,59,493,4812,1034,-2390,-63,-1059,55,39,53
2600,60,1430,5443,495,-2445,-409,-1272,51,33,49
2610,61,1970,4115,140,-1500,-580,-1144,51,33,49
2620,62,1780,2620,439,-118,-361,-913,54,48,56
2630,63,1305,1920,1135,443,-141,-745,54,48,56
2640,64,816,1539,1222,353,-38,-650,47,45,55
2650,65,634,1258,854,29,4,-608,47,45,55
2660,66,690,920,333,-373,-48,-563,51,47,55
2670,67,434,467,-693,-511,-321,-458,51,47,55
2680,68,-404,-171,-828,-680,-664,-278,49,49,57
2690,69,-1458,-1049,5024,-1025,-846,-76,49,49,57
2700,70,-2504,-812,7637,351,-232,14,47,55,57
2710,71,1008,-6446,21628,-7151,1939,1275,47,55,57
2720,72,10218,-13458,-5169,-1486,8450,2938,43,53,61
2730,73,9299,-17379,-3007,-1062,2180,4344,43,53,61
2740,74,-1640,-10708,1262,742,302,2347,54,50,72
2750,75,-7503,-8150,4231,1014,-214,442,54,50,72
2760,76,-9671,-6030,3115,1039,-282,-1339,63,45,77
2770,77,-6622,-7661,2047,-799,383,-746,63,45,77
2780,78,-2591,-7696,-407,-52,672,1,63,43,79
2790,79,597,-7727,-432,321,122,93,63,43,79
2800,80,1290,-9689,1112,59,-9,83,67,45,71
2810,81,2040,-10093,99,350,-76,130,67,45,71
2820,82,890,-9403,176,671,-6,10,63,47,73
2830,83,-252,-8138,293,950,155,-295,63,47,73
2840,84,-1047,-7270,-18,1080,-182,-487,63,45,67
2850,85,-1223,-6878,1099,753,-840,-445,63,45,67
2860,86,-1346,-6477,1131,141,-1233,-326,66,48,70
2870,87,-985,-6629,1162,-274,-1219,-284,66,48,70
2880,88,16,-6571,1480,-184,-584,-301,63,43,69
2890,89,1040,-6585,1028,310,-544,-243,63,43,69
2900,90,1135,-5955,687,811,-724,-81,54,42,64
2910,91,1265,-4381,64,1299,-854,87,54,42,64
2920,92,808,-2978,229,1444,-1295,234,58,44,66
2930,93,189,-2159,386,1289,-1252,290,58,44,66
2940,94,144,-880,90,1330,-799,316,66,48,56
2950,95,57,-27,568,1168,-865,356,66,48,56
2960,96,-392,1224,981,927,-838,409,59,45,53
2970,97,-442,1923,1748,331,-770,511,59,45,53
2980,98,-410,2815,1657,-163,-659,598,60,40,52
2990,99,-600,3524,1534,-364,-484,622,60,40,52
3000,100,-447,3990,1897,-365,-17,598,64,44,48
3010,101,196,3480,1423,-152,492,639,64,44,48
3020,102,644,2764,1098,154,693,743,60,36,52
3030,103,859,2302,451,354,424,828,60,36,52
3040,104,881,1687,94,323,209,875,63,35,55
3050,105,593,1271,-146,-29,26,901,63,35,55
3060,106,182,962,-529,-351,-196,867,71,39,53
3070,107,-256,549,-560,-600,-195,734,71,39,53
3080,108,-126,18,-361,-786,83,534,69,37,47
3090,109,-77,427,9367,-1038,816,259,69,37,47
3100,110,642,-2264,14571,-216,35,-447,68,42,54
3110,111,-10650,-1852,14919,-6761,-1969,-1008,68,42,54
3120,112,-4765,-12643,-11603,-1142,-2761,-2238,73,43,55
3130,113,-5380,-14027,1691,-116,-2339,-3646,73,43,55
3140,114,-2931,-13868,5908,936,-1742,-2431,66,40,60
3150,115,13920,-12077,6743,-299,940,174,66,40,60
3160,116,8286,-8122,-111,195,629,1012,60,42,60
3170,117,3398,-5970,2115,939,1183,211,60,42,60
3180,118,2135,-7048,2114,877,1492,-713,58,38,58
3190,119,-573,-7415,1694,555,650,-1046,58,38,58
3200,120,-3554,-10771,1109,-184,714,-973,59,41,55
3210,121,-3618,-10833,-142,268,1361,-961,59,41,55
3220,122,-1416,-10551,923,931,1627,-793,63,45,57
3230,123,82,-7907,1659,1046,1141,-509,63,45,57
3240,124,481,-6248,1360,1012,650,-220,55,43,53
3250,125,-94,-5291,1030,956,537,-44,55,43,53
3260,126,-523,-4873,1020,661,582,-64,57,47,57
3270,127,-856,-4841,1019,152,491,-109,57,47,57
3280,128,-1344,-5301,1149,-306,229,-83,60,48,56
3290,129,-1652,-4936,1099,-280,160,-40,60,48,56
3300,130,-1542,-4061,766,182,227,6,60,44,56
3310,131,-1098,-3714,191,876,-157,181,60,44,56
3320,132,-1399,-2539,473,791,-412,362,56,44,54
3330,133,-1409,-773,336,689,-613,401,56,44,54
3340,134,-1340,282,148,522,-508,305,57,47,57
3350,135,-1196,1017,-240,527,-543,149,57,47,57
3360,136,-1122,1424,1006,163,-276,-65,60,42,52
3370,137,-728,1903,1625,-413,-191,-246,60,42,52
3380,138,-429,2995,1755,-1028,-162,-427,54,42,56
3390,139,307,4127,1218,-1430,-278,-657,54,42,56
3400,140,1251,4296,459,-1337,-396,-819,61,45,51
3410,141,1718,3386,136,-923,-463,-821,61,45,51
3420,142,1495,2513,69,-310,-515,-764,53,43,51
3430,143,1023,2131,318,9,-486,-694,53,43,51
3440,144,668,1822,718,-131,-444,-638,58,50,62
3450,145,439,1581,719,-343,-290,-585,58,50,62
3460,146,270,1156,71,-414,-287,-495,53,51,57
3470,147,-456,479,993,-698,-554,-324,53,51,57
3480,148,-919,755,6046,3,790,-165,49,49,55
3490,149,-2338,-1807,12274,-933,635,421,49,49,55
3500,150,6766,-5149,4164,-6896,174,1590,48,50,58
3510,151,12325,-12275,-4066,-952,5901,3186,48,50,58
3520,152,3881,-15710,-1482,-1590,741,3630,58,52,66
3530,153,-2672,-12942,777,-296,-264,1900,58,52,66
3540,154,-8854,-12796,6767,1529,676,148,63,43,73
3550,155,-8130,-7188,1372,1907,-336,-674,63,43,73
3560,156,-5490,-5633,1193,292,-372,116,66,46,70
3570,157,-2751,-6665,921,-471,-459,619,66,46,70
3580,158,411,-8241,27,-77,-191,476,65,41,69
3590,159,2173,-9712,1451,380,-192,453,65,41,69
3600,160,2284,-10531,613,625,-855,549,65,47,65
3610,161,526,-9240,827,1261,-472,344,65,47,65
3620,162,75,-7609,424,1674,178,-54,68,46,68
3630,163,-145,-7001,724,1424,-516,-205,68,46,68
3640,164,-685,-6450,1251,487,-850,-197,66,42,60
3650,165,-637,-6583,869,-378,-656,-224,66,42,60
3660,166,-143,-6806,836,-633,-539,-218,64,42,60
3670,167,300,-6967,1310,-306,-362,-161,64,42,60
3680,168,1067,-7003,757,104,-93,-59,68,38,62
3690,169,1044,-6193,-109,638,-83,92,68,38,62
3700,170,1460,-4206,-391,1069,-402,219,64,38,60
3710,171,603,-3120,-62,1282,-656,339,64,38,60
3720,172,322,-1788,-45,1191,-882,430,62,42,52
3730,173,-77,-1075,379,1014,-1097,543,62,42,52
3740,174,-355,-793,916,843,-1133,720,64,40,52
3750,175,-605,-294,979,813,-1004,911,64,40,52
3760,176,-561,886,1093,991,-752,1041,64,40,52
3770,177,-382,2057,1820,1056,-314,1091,64,40,52
3780,178,-642,3421,2766,665,105,1006,67,33,47
3790,179,-286,4750,2279,58,528,868,67,33,47
3800,180,1090,4874,1528,-444,902,900,69,29,43
3810,181,2061,3904,432,-368,832,1023,69,29,43
3820,182,1963,2747,142,-49,733,1034,71,31,47
3830,183,1912,1976,346,-135,489,1002,71,31,47
3840,184,1109,1476,415,-408,292,949,78,28,48
3850,185,565,848,205,-673,308,819,78,28,48
3860,186,111,6,-63,-880,602,614,81,33,49
3870,187,1099,-529,2178,-1112,851,432,81,33,49
3880,188,2238,-1064,6547,-263,1533,83,81,27,49
3890,189,1144,-3560,18965,-2727,-1462,-761,81,27,49
3900,190,-8065,-5444,-6127,-7462,-2225,-1496,78,28,50
3910,191,-13411,-21736,4680,-400,-4356,-3416,78,28,50
3920,192,-5906,-11340,-5898,2563,-1988,-3496,79,35,59
3930,193,-2319,-8823,8838,1328,-1262,-1869,79,35,59
3940,194,8940,-8830,4166,-403,164,60,72,36,52
3950,195,7776,-7028,-468,197,-258,434,72,36,52
3960,196,4516,-6774,2010,742,897,257,68,40,50
3970,197,2722,-7803,724,552,479,54,68,40,50
3980,198,-1303,-9271,-201,480,-127,-68,66,40,56
3990,199,-3229,-9875,-158,769,717,-30,66,40,56
4000,200,-2362,-9962,-545,904,716,34,70,40,52
4010,201,-1153,-9984,989,444,532,249,70,40,52
4020,202,207,-8445,909,307,404,371,72,36,50
4030,203,783,-7511,624,238,328,377,72,36,50
4040,204,802,-6845,733,210,646,256,66,32,46
4050,205,362,-6120,762,465,710,38,66,32,46
4060,206,-617,-5799,1050,483,313,-138,75,31,47
4070,207,-1637,-5018,758,502,-49,-206,75,31,47
4080,208,-1983,-4303,725,779,-94,-221,73,37,49
4090,209,-1534,-4174,1135,958,115,-174,73,37,49
4100,210,-1250,-2606,1400,919,168,-192,64,34,40
4110,211,-851,-1552,1740,546,324,-348,64,34,40
4120,212,-103,-311,864,398,364,-561,60,36,48
4130,213,248,612,188,366,20,-764,60,36,48
4140,214,296,2354,1489,-72,-95,-879,70,40,50
4150,215,641,3230,1943,-1100,-267,-953,70,40,50
4160,216,625,4024,1805,-1848,-287,-1060,62,38,38
4170,217,735,4478,1214,-1808,-287,-1197,62,38,38
4180,218,1241,4256,753,-1270,-244,-1249,60,36,52
4190,219,1258,3459,522,-702,-84,-1169,60,36,52
4200,220,1128,2961,368,-344,86,-1010,64,46,50
4210,221,842,2280,512,-384,157,-852,64,46,50
4220,222,616,1540,740,-392,315,-778,59,39,49
4230,223,597,852,703,-446,369,-765,59,39,49
4240,224,496,79,55,-355,70,-691,57,47,49
4250,225,49,-957,-96,-527,-234,-456,57,47,49
4260,226,-681,-1669,1644,-866,-211,-150,54,42,56
4270,227,-1089,-1465,6316,-628,373,112,54,42,56
4280,228,1341,-5711,18612,-5127,953,1010,59,51,53
4290,229,4449,-12410,-2325,-794,6074,2298,59,51,53
4300,230,9658,-17452,-458,-989,4703,3863,59,51,63
4310,231,238,-9745,-26,817,373,2512,59,51,63
4320,232,-7274,-6482,3830,836,-524,868,67,43,63
4330,233,-9737,-7312,3580,582,55,-1031,67,43,63
4340,234,-7911,-7773,1028,31,567,-801,72,38,70
4350,235,-3765,-8051,3,506,-183,-29,72,38,70
4360,236,-274,-8679,480,523,-721,24,67,35,63
4370,237,533,-9080,266,447,-560,-116,67,35,63
4380,238,1768,-10608,-203,639,-432,9,70,42,62
4390,239,643,-9133,647,1024,-319,15,70,42,62
4400,240,-358,-8286,1055,825,72,-207,67,45,63
4410,241,-666,-7777,-819,869,-643,-375,67,45,63
4420,242,-724,-7441,229,747,-1412,-311,69,41,61
4430,243,-42,-7494,950,240,-1152,-170,69,41,61
4440,244,450,-7564,108,-159,-1402,-61,66,40,62
4450,245,774,-6738,1354,21,-1020,-101,66,40,62
4460,246,970,-5597,1281,365,-749,-139,62,44,60
4470,247,666,-4566,415,483,-1073,-4,62,44,60
4480,248,364,-3721,-38,581,-1214,249,60,48,52
4490,249,257,-2554,-124,875,-1109,515,60,48,52
4500,250,689,-1671,1029,985,-1085,740,62,36,52
4510,251,769,-715,1785,788,-955,889,62,36,52
4520,252,404,682,2400,559,-1025,1046,68,40,44
4530,253,130,2248,2525,282,-844,1126,68,40,44
4540,254,-189,3387,1898,-209,-570,1118,68,32,44
4550,255,-500,4587,1617,-659,-142,1078,68,32,44
4560,0,-140,4948,1478,-917,401,1023,66,40,44
4570,1,431,3886,1042,-442,729,949,66,40,44
4580,2,941,3062,598,-5,723,856,74,34,48
4590,3,1107,2251,300,165,394,794,74,34,48
4600,4,919,1706,63,171,359,753,74,34,44
4610,5,540,1099,-74,48,255,691,74,34,44
4620,6,231,599,69,-200,193,572,74,30,46
4630,7,25,54,-76,-562,201,398,74,30,46
4640,8,5,-438,100,-968,354,196,78,30,48
4650,9,257,-596,6815,-1484,478,-14,78,30,48
4660,10,1687,-2277,8682,-139,373,-728,79,37,49
4670,11,-9569,-2262,18139,-7211,-2289,-1463,79,37,49
4680,12,-5913,-13950,-10401,-1077,-4973,-2513,79,33,53
4690,13,-7812,-13883,-589,1032,-2035,-3896,79,33,53
4700,14,-4763,-10567,2063,2306,-1769,-2656,73,41,55
4710,15,12120,-13084,9204,149,1043,40,73,41,55
4720,16,11105,-7967,39,-246,-39,1363,62,42,50
4730,17,5314,-6788,825,277,827,942,62,42,50
4740,18,3214,-6692,1084,548,1684,174,64,40,50
4750,19,1052,-7478,-32,641,1097,-314,64,40,50
4760,20,-1162,-9810,368,54,924,-273,67,45,51
4770,21,-4003,-9999,-951,260,1495,-518,67,45,51
4780,22,-2682,-10082,53,543,1533,-708,66,40,50
4790,23,-1067,-8349,947,497,1385,-590,66,40,50
4800,24,-544,-7102,1163,469,1353,-415,66,40,50
4810,25,-402,-6539,644,783,984,-259,66,40,50
4820,26,-1021,-6085,710,911,439,-271,69,41,55
4830,27,-1832,-5600,988,738,148,-298,69,41,55
4840,28,-2238,-4500,1666,268,130,-250,65,45,55
4850,29,-1933,-3947,1709,6,-22,-143,65,45,55
4860,30,-1488,-2858,1232,-110,-587,78,69,37,49
4870,31,-1363,-2165,494,58,-1149,286,69,37,49
4880,32,-1503,-1768,-153,850,-1452,398,65,35,49
4890,33,-1947,-670,-253,1329,-1128,350,65,35,49
4900,34,-2769,1406,507,1287,-508,153,64,42,50
4910,35,-2203,2151,1532,288,8,-37,64,42,50
4920,36,-1288,2786,2205,-804,231,-242,66,36,48
4930,37,-147,3874,2531,-1982,409,-488,66,36,48
4940,38,1364,4958,1951,-2558,166,-795,68,42,46
4950,39,2826,5199,78,-1863,38,-1038,68,42,46
4960,40,3919,4640,-2223,-310,-37,-1117,62,38,54
4970,41,3108,3770,-1271,423,390,-1127,62,38,54
4980,42,2292,2311,818,-314,687,-1081,58,38,50
4990,43,2031,1461,977,-108,-418,-831,58,38,50
5000,44,1166,637,329,98,-1137,-572,57,47,57
5010,45,51,102,-707,261,-1534,-323,57,47,57
5020,46,-3690,-373,19906,-809,594,-149,57,41,51
5030,47,-3833,-1243,11443,627,703,-26,57,41,51
5040,48,789,-4524,16551,-7008,3401,1268,55,45,51
5050,49,11029,-6339,-11987,-748,7790,2091,55,45,51
5060,50,9431,-20705,-2175,-3365,2431,3258,60,46,64
5070,51,-5673,-19575,-747,-378,-1269,1420,60,46,64
5080,52,-9225,-11229,5618,2361,-233,-164,69,43,77
5090,53,-7710,-4924,3242,2479,6,-631,69,43,77
5100,54,-5248,-4676,2793,389,76,369,66,44,70
5110,55,-3098,-6587,1604,-833,612,690,66,44,70
5120,56,-18,-9233,-853,-677,138,535,68,36,66
5130,57,1388,-9677,-486,339,-937,344,68,36,66
5140,58,825,-9771,305,1057,-896,334,72,36,72
5150,59,-485,-8885,670,1597,-678,77,72,36,72
5160,60,-1080,-7967,712,1933,-387,-399,70,40,70
5170,61,-711,-7191,733,1819,-301,-824,70,40,70
5180,62,-611,-7021,1103,1004,-536,-882,70,42,62
5190,63,-424,-6430,1457,-320,-521,-747,70,42,62
5200,64,240,-5993,995,-869,-280,-543,72,40,58
5210,65,963,-5922,540,-583,69,-363,72,40,58
5220,66,1462,-5864,526,52,-21,-220,66,36,58
5230,67,810,-4509,72,666,79,-74,66,36,58
5240,68,478,-3134,-410,868,-43,50,67,37,61
5250,69,-97,-1824,-1019,964,-546,88,67,37,61
5260,70,-278,-1193,-1102,1183,-612,137,66,42,56
5270,71,-564,-299,-774,1284,-600,238,66,42,56
5280,72,-596,418,294,945,-595,427,63,47,55
5290,73,-334,850,1131,417,-415,672,63,47,55
5300,74,-25,1179,1463,160,-353,974,63,35,51
5310,75,-113,1904,1496,294,-386,1256,63,35,51
5320,76,-449,2663,2098,412,-351,1457,65,35,47
5330,77,-684,3248,2101,338,-27,1432,65,35,47
5340,78,-858,3583,1720,234,580,1248,75,33,49
5350,79,48,3199,1202,151,1065,1141,75,33,49
5360,80,1662,2170,198,153,879,1109,73,33,49
5370,81,1840,1795,-25,0,434,1022,73,33,49
5380,82,1083,1381,-335,-240,284,853,80,32,48
5390,83,576,937,-163,-517,331,668,80,32,48
5400,84,722,533,1517,-885,436,463,74,26,50
5410,85,1585,1212,4921,-1063,1194,183,74,26,50
5420,86,113,-1318,18300,-1145,-1257,-338,80,32,54
5430,87,-10675,188,12523,-7185,-2395,-1060,80,32,54
5440,88,-6853,-14737,-11407,-2175,-1682,-2599,76,32,52
5450,89,-8338,-13720,-1125,-763,-2838,-3612,76,32,52
5460,90,491,-15320,4560,1324,-1083,-2427,71,35,63
5470,91,12825,-12990,6746,-1372,1698,415,71,35,63
5480,92,8752,-10557,-1618,-431,1884,1191,70,44,60
5490,93,3911,-3266,447,1911,1813,193,70,44,60
5500,94,3077,-6201,2399,1460,1809,-803,71,39,65
5510,95,356,-7048,525,102,34,-1211,71,39,65
5520,96,-4550,-9565,1302,-719,242,-1271,66,40,58
5530,97,-6126,-9636,-2216,178,2172,-1213,66,40,58
5540,98,-3678,-11834,-305,735,2090,-999,62,42,62
5550,99,-1059,-8577,1297,1299,1229,-418,62,42,62
5560,100,296,-6638,1628,1057,675,-25,63,39,67
5570,101,202,-4906,1743,1118,1160,137,63,39,67
5580,102,111,-4643,1493,706,1355,142,62,40,56
5590,103,-778,-3851,847,67,899,176,62,40,56
5600,104,-2091,-3866,615,-652,329,244,66,40,64
5610,105,-2871,-3707,502,-874,213,280,66,40,64
5620,106,-2635,-4236,520,-625,309,286,69,39,65
5630,107,-1983,-3514,65,10,254,280,69,39,65
5640,108,-1079,-3046,631,647,-251,308,72,42,66
5650,109,-1054,-1510,688,927,-430,331,72,42,66
5660,110,-1072,-451,371,1206,-572,266,71,45,65
5670,111,-1219,1167,864,1547,-657,54,71,45,65
5680,112,-1122,1718,1879,1164,-479,-203,69,39,65
5690,113,-743,2583,2112,433,-388,-452,69,39,65
5700,114,-261,3422,2536,-657,-219,-683,67,39,57
5710,115,660,4149,1672,-1694,-104,-877,67,39,57
5720,116,1879,3749,408,-2016,-354,-870,68,38,56
5730,117,2162,2955,-711,-1090,-529,-787,68,38,56
5740,118,1782,2555,-160,159,-306,-701,67,41,59
5750,119,1432,2495,478,543,-44,-608,67,41,59
5760,120,1383,2098,788,394,-129,-493,60,40,60
5770,121,1115,1749,477,97,-473,-359,60,40,60
5780,122,548,1301,-516,-84,-1029,-207,63,43,55
5790,123,-425,599,-788,-154,-1550,-9,63,43,55
5800,124,-3301,585,11321,-2024,91,275,57,43,55
5810,125,-2548,-1505,10987,751,296,423,57,43,55
5820,126,-1652,-3176,20649,-5559,1202,1423,67,43,59
5830,127,13968,-14079,-804,-2368,7248,3442,67,43,59
5840,128,6691,-24981,-5610,-3193,3136,4947,68,48,70
5850,129,-7963,-13253,327,1511,-1812,2327,68,48,70
5860,130,-11429,-5049,7119,1608,-1878,-87,75,39,81
5870,131,-7469,-3479,3538,1375,-752,-1161,75,39,81
5880,132,-5026,-5823,32,-684,-237,-515,74,34,72
5890,133,-1591,-8899,-819,-379,-550,25,74,34,72
5900,134,1231,-9593,-858,311,-977,229,77,37,75
5910,135,2863,-11137,1780,276,-685,350,77,37,75
5920,136,2153,-9931,614,631,-655,625,73,41,73
5930,137,526,-7861,509,948,-421,416,73,41,73
5940,138,241,-7439,51,1271,-408,22,79,35,71
5950,139,26,-7476,585,1023,-759,-316,79,35,71
5960,140,-102,-7101,584,121,-1087,-455,74,36,64
5970,141,-224,-7285,502,-768,-1232,-440,74,36,64
5980,142,160,-7648,884,-975,-997,-392,77,39,69
5990,143,774,-7620,1350,-234,-310,-348,77,39,69
6000,144,1147,-6836,906,559,-7,-255,74,40,62
6010,145,1094,-5754,328,1063,-469,5,74,40,62
6020,146,1088,-4408,-171,1274,-1106,288,73,41,63
6030,147,190,-3626,480,1471,-1355,444,73,41,63
6040,148,-525,-2030,157,1533,-1268,497,74,38,56
6050,149,-717,-1258,636,1575,-1197,582,74,38,56
6060,150,-1008,-386,878,1470,-1086,633,77,37,53
6070,151,-1196,280,766,1349,-722,632,77,37,53
6080,152,-564,1486,429,1378,-444,614,79,31,49
6090,153,-184,2594,859,1097,-588,629,79,31,49
6100,154,-568,3604,1799,448,-560,622,75,29,47
6110,155,-243,4179,2018,-245,-163,569,75,29,47
6120,156,598,3851,1702,-804,297,651,79,31,47
6130,157,1364,2939,410,-602,357,794,79,31,47
6140,158,1421,2446,-168,-139,132,925,83,25,47
6150,159,1254,1953,95,-52,-143,999,83,25,47
6160,160,955,1434,-9,-388,-208,1038,78,28,46
6170,161,690,1122,-139,-707,-216,1004,78,28,46
6180,162,371,589,439,-913,-271,879,80,24,40
6190,163,453,325,6287,-1475,2,705,80,24,40
6200,164,2376,-1103,5588,150,782,210,82,22,48
6210,165,-3793,340,15191,-2291,-2229,-302,82,22,48
6220,166,-7960,-1448,1480,-6099,-1022,-933,81,19,45
6230,167,-6253,-10953,-3833,-1427,-1989,-1743,81,19,45
6240,168,-3526,-14221,749,-813,-937,-2793,81,27,57
6250,169,1001,-15491,4326,1137,-623,-2268,81,27,57
6260,170,8901,-13239,6978,-232,1303,-471,80,28,50
6270,171,5607,-8952,1290,380,1713,291,80,28,50
6280,172,3423,-3676,222,1342,1031,-470,76,34,52
6290,173,2900,-7108,2343,1025,1314,-1074,76,34,52
6300,174,640,-6949,169,1004,851,-1228,69,29,53
6310,175,-2929,-9588,1035,-551,1192,-1229,69,29,53
6320,176,-3858,-10580,-852,-8,1454,-1160,72,32,54
6330,177,-2295,-11285,1045,952,1577,-839,72,32,54
6340,178,-844,-8868,951,1358,1066,-442,70,38,54
6350,179,-612,-6899,884,1392,444,-199,70,38,54
6360,180,-749,-5699,819,1311,820,-175,70,46,52
6370,181,-792,-5333,762,820,957,-215,70,46,52
6380,182,-1159,-4695,588,278,881,-253,72,34,56
6390,183,-1654,-4843,686,-229,668,-240,72,34,56
6400,184,-2413,-4843,652,-440,370,-215,69,31,57
6410,185,-2582,-4834,479,-197,322,-228,69,31,57
6420,186,-2091,-4300,583,357,185,-183,70,38,50
6430,187,-1925,-3325,1273,477,-12,-112,70,38,50
6440,188,-1694,-2092,1250,629,-159,-140,66,34,54
6450,189,-1494,-771,1154,952,-170,-298,66,34,54
6460,190,-985,327,1692,1201,-25,-449,72,34,54
6470,191,-830,1504,1818,1136,-119,-602,72,34,54
6480,192,-210,2772,2239,387,-121,-726,70,38,52
6490,193,436,3757,1654,-784,145,-866,70,38,52
6500,194,986,4778,353,-1523,438,-1044,65,35,49
6510,195,1941,4863,-403,-1605,307,-1171,65,35,49
6520,196,2172,3797,-249,-676,175,-1161,64,40,48
6530,197,1683,3030,302,258,426,-1078,64,40,48
6540,198,1685,2632,523,144,390,-969,62,36,56
6550,199,1375,2212,219,-100,52,-821,62,36,56
6560,200,741,1645,-459,-229,-550,-611,57,41,55
6570,201,-246,750,-677,-253,-806,-353,57,41,55
6580,202,-1163,-262,285,-838,-822,-101,62,42,52
6590,203,-4402,-209,13773,-2086,293,255,62,42,52
6600,204,-4997,-2195,7570,539,-210,385,55,47,53
6610,205,-3429,-4732,15839,-6582,3074,1464,55,47,53
6620,206,11177,-14256,-4590,-1704,8220,2853,56,42,56
6630,207,9323,-20469,-2369,-1143,922,3714,56,42,56
6640,208,-5193,-9863,-191,1399,-315,1910,67,43,71
6650,209,-8476,-6410,5986,1332,-1762,666,67,43,71
6660,210,-7381,-5015,2505,1023,16,-403,74,38,76
6670,211,-3657,-7367,2491,-614,166,128,74,38,76
6680,212,-1163,-7851,-1061,-334,-42,383,74,36,64
6690,213,164,-8892,-166,158,-382,83,74,36,64
6700,214,757,-11318,-121,440,-298,40,72,38,64
6710,215,-44,-9670,588,978,-185,53,72,38,64
6720,216,-613,-8498,423,1070,-185,-177,73,35,65
6730,217,-1121,-7784,455,1076,-308,-405,73,35,65
6740,218,-775,-7347,168,992,-552,-482,72,38,62
6750,219,-390,-7198,359,461,-896,-391,72,38,62
6760,220,74,-7046,376,-15,-821,-261,70,38,60
6770,221,95,-6802,1174,-387,-656,-154,70,38,60
6780,222,516,-5781,1211,-215,-346,-141,69,37,61
6790,223,144,-5205,696,187,-481,-55,69,37,61
6800,224,-112,-4491,65,695,-806,176,74,34,58
6810,225,89,-3958,154,969,-853,469,74,34,58
6820,226,335,-3066,175,1181,-802,708,66,36,56
6830,227,481,-1941,800,1210,-753,833,66,36,56
6840,228,586,-791,1615,1000,-850,952,71,33,61
6850,229,283,668,1842,801,-834,1008,71,33,61
6860,230,161,2094,2026,607,-784,994,73,31,47
6870,231,-608,3100,1770,261,-758,892,73,31,47
6880,232,-1184,4291,1496,-99,-149,705,74,26,44
6890,233,-58,4660,1672,-483,820,680,74,26,44
6900,234,1164,3947,601,-477,1153,777,76,32,46
6910,235,1549,3348,-27,-111,890,833,76,32,46
6920,236,1517,2613,38,84,633,866,72,30,48
6930,237,1122,1782,171,-32,398,940,72,30,48
6940,238,490,1272,15,-154,406,941,76,20,48
6950,239,250,805,52,-411,399,871,76,20,48
6960,240,-36,126,-2,-560,245,742,85,23,49
6970,241,89,67,5783,-1275,457,636,85,23,49
6980,242,1885,-1380,5849,356,800,159,79,23,51
6990,243,-4223,1161,26445,-6726,-3120,-635,79,23,51
7000,244,-9534,-5990,-15408,-5015,-1062,-1754,85,25,51
7010,245,-10333,-16769,-1313,-360,-4094,-3398,85,25,51
7020,246,-3207,-7448,1138,2202,-2357,-3118,81,31,63
7030,247,111,-12938,8460,-3,-1679,-1914,81,31,63
7040,248,14713,-12547,4265,-578,664,542,69,37,55
7050,249,7444,-7371,-705,605,1002,1008,69,37,55
7060,250,3195,-4941,1574,1079,1091,443,71,37,55
7070,251,1994,-7041,2017,563,809,-283,71,37,55
7080,252,-677,-7124,1100,512,132,-736,74,36,52
7090,253,-3320,-10129,337,56,388,-834,74,36,52
7100,254,-4343,-10507,-915,572,588,-894,71,35,49
7110,255,-2692,-10718,488,991,818,-764,71,35,49
7120,0,-586,-7936,1182,1130,687,-416,68,38,56
7130,1,259,-6702,1240,940,689,-117,68,38,56
7140,2,730,-6306,681,828,855,4,66,34,56
7150,3,510,-5577,459,765,890,-32,66,34,56
7160,4,-110,-5450,610,737,667,-105,73,35,57
7170,5,-870,-5591,610,702,272,-190,73,35,57
7180,6,-1861,-4921,658,630,-10,-260,71,35,53
7190,7,-2551,-4187,870,784,33,-257,71,35,53
7200,8,-2357,-3817,778,854,-2,-126,68,38,52
7210,9,-2342,-2763,525,784,-250,-9,68,38,52
7220,10,-2434,-1297,397,988,-225,-73,62,36,52
7230,11,-1736,253,633,1036,176,-274,62,36,52
7240,12,-1447,1170,581,1093,410,-494,68,32,48
7250,13,-1136,2037,1334,807,345,-693,68,32,48
7260,14,-561,2654,1849,289,280,-862,69,37,43
7270,15,62,3292,1998,-382,285,-1002,69,37,43
7280,16,775,4199,1037,-1000,215,-1106,62,32,44
7290,17,1593,4194,-9,-1252,-8,-1126,62,32,44
7300,18,1927,3751,-596,-1091,-257,-1045,64,34,50
7310,19,1638,3277,-232,-644,-283,-888,64,34,50
7320,20,1286,2686,205,-239,51,-742,57,37,55
7330,21,1192,2109,538,-143,322,-609,57,37,55
7340,22,1046,1635,477,-298,146,-438,58,40,52
7350,23,886,733,-102,-408,-238,-211,58,40,52
7360,24,277,-124,-163,-413,-395,-44,58,44,52
7370,25,-666,-856,550,-961,-307,-26,58,44,52
7380,26,-3772,-331,2303,-1740,374,24,60,38,50
7390,27,-6025,-4391,19505,-1566,184,425,60,38,50
7400,28,3152,-11392,-2262,-4448,7647,1710,62,44,52
7410,29,17351,-23705,4168,-2305,5478,3398,62,44,52
7420,30,-9,-11891,-1783,674,116,2373,61,41,67
7430,31,-7188,-5364,2762,1616,-2217,1027,61,41,67
7440,32,-8152,-4205,4678,255,-30,-660,71,37,73
7450,33,-6381,-6066,1286,88,353,-763,71,37,73
7460,34,-2917,-8595,-79,-174,-82,51,67,39,67
7470,35,-953,-9111,704,294,-848,74,67,39,67
7480,36,217,-10380,1566,124,-360,-20,65,41,69
7490,37,1519,-11425,-705,731,-270,153,65,41,69
7500,38,173,-9143,572,1253,-287,23,71,37,61
7510,39,-950,-7748,1436,1032,-311,-409,71,37,61
7520,40,-759,-7730,1357,737,-366,-820,69,39,61
7530,41,-252,-7670,783,379,-434,-990,69,39,61
7540,42,319,-7982,313,255,-355,-864,70,34,62
7550,43,680,-7216,-18,-331,-319,-584,70,34,62
7560,44,206,-6550,1023,-259,-98,-329,66,38,60
7570,45,-28,-5469,1049,242,-43,-173,66,38,60
7580,46,-610,-4737,604,633,-329,-20,59,43,57
7590,47,-539,-3483,-161,725,-822,180,59,43,57
7600,48,-762,-2415,-588,760,-1085,443,60,40,54
7610,49,-119,-1621,-441,1019,-1211,689,60,40,54
7620,50,126,-831,261,1339,-1177,888,65,41,57
7630,51,-172,-76,1477,1517,-1269,1101,65,41,57
7640,52,-544,949,2070,1516,-1277,1302,67,39,53
7650,53,-727,1769,2859,1109,-925,1402,67,39,53
7660,54,-991,1612,3128,145,-298,1434,69,31,43
7670,55,-556,4148,1868,-271,-184,1400,69,31,43
7680,56,-159,4368,1155,-535,252,1266,70,32,50
7690,57,584,3711,690,-320,910,1131,70,32,50
7700,58,1548,2810,171,-1,848,1084,74,34,44
7710,59,1624,2254,-125,123,484,1031,74,34,44
7720,60,1182,1805,71,25,329,949,77,25,45
7730,61,592,1218,335,-419,68,829,77,25,45
7740,62,-19,575,-163,-894,113,641,76,28,48
7750,63,382,99,-344,-1124,263,476,76,28,48
7760,64,608,-1,9986,-2089,831,230,79,23,47
7770,65,2205,-3474,8569,-361,396,-672,79,23,47
7780,66,-5052,-239,14473,-7868,-2666,-1631,83,25,49
7790,67,-6589,-10114,-9367,-2245,-3574,-2484,83,25,49
7800,68,-7739,-15273,-223,1092,-2791,-3374,77,31,61
7810,69,-5091,-7247,1305,2142,-2333,-2653,77,31,61
7820,70,5940,-15150,9097,-50,314,-538,62,34,56
7830,71,11357,-10650,1107,-563,533,1086,62,34,56
7840,72,5071,-6452,-533,646,855,766,66,38,50
7850,73,2266,-5511,2538,1205,1822,242,66,38,50
7860,74,1449,-7767,1607,207,614,-269,70,34,50
7870,75,-1491,-8702,-199,275,269,-513,70,34,50
7880,76,-3372,-9820,-786,126,1098,-566,68,36,56
7890,77,-2999,-11206,-737,532,1284,-542,68,36,56
7900,78,-1154,-9788,879,720,1113,-227,68,36,56
7910,79,-298,-7623,1602,661,1185,117,68,36,56
7920,80,-215,-6584,1020,654,995,389,65,37,51
7930,81,-574,-6362,406,779,763,460,65,37,51
7940,82,-1221,-5610,595,813,633,392,72,40,56
7950,83,-1742,-5429,979,609,639,280,72,40,56
7960,84,-2309,-5237,1144,323,432,195,69,35,51
7970,85,-2927,-4910,1195,319,233,132,69,35,51
7980,86,-2120,-4322,492,588,112,131,71,31,53
7990,87,-2357,-2943,1316,661,-265,77,71,31,53
8000,88,-2108,-2327,1365,739,-140,-55,71,37,55
8010,89,-1575,-337,1118,969,-174,-251,71,37,55
8020,90,-947,854,942,1048,-137,-452,65,35,51
8030,91,-416,2185,979,653,-170,-651,65,35,51
8040,92,199,3239,1295,-351,-43,-855,75,35,45
8050,93,1093,4922,2108,-1552,34,-1136,75,35,45
8060,94,2279,5666,1798,-1939,-101,-1285,72,38,44
8070,95,2998,4175,435,-1502,-12,-1106,72,38,44
8080,96,2804,4290,-644,-426,84,-825,70,30,48
8090,97,1820,2735,585,-121,439,-605,70,30,48
8100,98,1298,2061,1080,-286,421,-476,65,41,49
8110,99,883,1823,286,-339,349,-392,65,41,49
8120,100,1002,1459,-320,-66,-7,-296,63,45,53
8130,101,569,649,-251,61,-170,-172,63,45,53
8140,102,-382,-231,164,-183,-577,-15,63,45,55
8150,103,-2821,-41,4548,-332,617,67,63,45,55
8160,104,-4578,-2496,14560,-1479,534,851,64,40,60
8170,105,7905,-7145,5650,-5511,3748,1925,64,40,60
8180,106,8350,-16308,-1578,-2963,5856,3460,69,43,59
8190,107,1486,-17495,-51,-1015,646,3048,69,43,59
8200,108,-9007,-11781,5636,112,326,1358,68,36,70
8210,109,-9354,-7734,1152,2317,156,-130,68,36,70
8220,110,-8178,-5033,2663,1725,-761,-282,73,29,75
8230,111,-5091,-5296,2894,-100,-349,393,73,29,75
8240,112,-1590,-7695,1877,-1008,446,597,76,34,70
8250,113,1061,-7823,97,99,-727,556,76,34,70
8260,114,792,-9749,1263,370,-803,524,80,34,76
8270,115,-277,-10570,-72,552,-841,427,80,34,76
8280,116,-1520,-9915,331,1082,-826,81,78,36,68
8290,117,-2214,-7971,290,1764,-389,-365,78,36,68
8300,118,-1570,-7115,964,1553,-1166,-615,83,35,61
8310,119,-891,-6611,1035,987,-1504,-734,83,35,61
8320,120,-338,-6484,719,308,-1378,-708,78,30,56
8330,121,5,-6256,813,-173,-993,-650,78,30,56
8340,122,1048,-5740,914,-519,-428,-527,75,33,59
8350,123,1669,-5563,1058,-528,-250,-400,75,33,59
8360,124,1419,-5581,1204,-126,-461,-239,71,33,59
8370,125,1019,-4849,259,455,-720,-93,71,33,59
8380,126,1047,-3962,-19,731,-674,29,77,35,59
8390,127,798,-3111,123,917,-691,106,77,35,59
8400,128,402,-1603,282,940,-713,220,73,37,55
8410,129,41,-638,431,976,-811,390,73,37,55
8420,130,-492,279,1313,1043,-1152,623,74,34,48
8430,131,-745,1052,1447,1138,-1293,846,74,34,48
8440,132,-1057,1746,2044,762,-1056,970,72,36,46
8450,133,-1054,4270,-70,113,-522,982,72,36,46
8460,134,-1113,4660,1541,-140,-453,850,74,28,46
8470,135,-129,4896,2007,-188,79,740,74,28,46
8480,136,487,4295,1296,-127,419,832,76,26,40
8490,137,836,3757,307,53,428,993,76,26,40
8500,138,1058,2876,47,53,146,1090,75,27,43
8510,139,516,1573,289,202,16,1109,75,27,43
8520,140,219,797,-82,27,-48,1053,78,28,42
8530,141,-57,327,-43,-278,-185,904,78,28,42
8540,142,-74,150,-325,-492,-67,714,83,21,45
8550,143,589,-241,2559,-1047,333,557,83,21,45
8560,144,2015,66,4673,-846,1134,146,86,24,46
8570,145,-1502,-1893,16976,-3290,-1566,-687,86,24,46
8580,146,-8154,-1322,-971,-7939,-2336,-1467,88,22,48
8590,147,-7561,-17113,908,-1953,-4774,-2829,88,22,48
8600,148,-7955,-15742,1903,1634,-1952,-3327,82,28,52
8610,149,2877,-16825,7448,1329,-593,-1754,82,28,52
8620,150,9804,-11634,3484,-1008,1599,619,72,32,48
8630,151,5877,-8072,-1503,345,-89,796,72,32,48
8640,152,2697,-5239,2844,1861,826,20,75,33,53
8650,153,2250,-6148,2312,1382,1003,-370,75,33,53
8660,154,-1391,-8213,268,-439,-448,-550,73,37,51
8670,155,-4345,-9120,20,-507,33,-676,73,37,51
8680,156,-3658,-10047,-556,295,1119,-776,71,37,49
8690,157,-1165,-10154,649,990,956,-522,71,37,49
8700,158,-175,-7665,823,1234,737,-113,72,36,50
8710,159,-175,-6168,1548,791,175,76,72,36,50
8720,160,-531,-5160,767,678,-14,163,71,35,45
8730,161,-929,-5042,803,660,19,92,71,35,45
8740,162,-1502,-5242,991,298,187,52,69,35,45
8750,163,-1992,-5310,1224,-3,344,56,69,35,45
8760,164,-1761,-4800,1141,268,417,6,71,29,43
8770,165,-1272,-4557,1340,668,284,78,71,29,43
8780,166,-1035,-3170,1134,909,-219,159,73,31,49
8790,167,-1356,-1777,1862,827,-332,156,73,31,49
8800,168,-1097,-924,1577,689,-157,12,70,30,42
8810,169,-731,270,613,612,-334,-224,70,30,42
8820,170,-628,1607,151,528,-142,-482,68,30,34
8830,171,-380,3234,541,-168,247,-762,68,30,34
8840,172,312,4171,1600,-1094,391,-1138,76,32,42
8850,173,1448,5357,2428,-1985,258,-1501,76,32,42
8860,174,2478,4604,1091,-1997,469,-1425,71,37,41
8870,175,2899,3830,-347,-903,264,-1056,71,37,41
8880,176,1753,3347,308,-300,189,-707,69,37,49
8890,177,1073,2351,428,-18,-85,-447,69,37,49
8900,178,733,1589,329,64,-201,-308,67,41,49
8910,179,562,1384,214,-95,-233,-251,67,41,49
8920,180,322,921,-156,-335,-248,-186,62,38,54
8930,181,-197,247,-807,-313,-477,-53,62,38,54
8940,182,-2565,-418,13289,-2980,-17,167,68,42,48
8950,183,-4052,-2149,9872,513,-9,357,68,42,48
8960,184,3075,-5735,10426,-6216,1043,1611,62,42,50
8970,185,10248,-10602,-2157,-2253,7442,3143,62,42,50
8980,186,6063,-23346,-4415,-2615,2568,3703,65,41,61
8990,187,-6833,-10953,4166,916,-857,2039,65,41,61
9000,188,-7906,-9373,4259,1230,1183,290,75,33,69
9010,189,-7743,-5533,1707,2133,-149,-531,75,33,69
9020,190,-5450,-5807,1875,476,-595,39,75,31,73
9030,191,-2348,-6139,847,-341,269,383,75,31,73
9040,192,508,-8399,577,52,-69,246,75,37,65
9050,193,1679,-10354,426,279,-487,297,75,37,65
9060,194,897,-10732,671,707,-405,412,77,35,67
9070,195,-596,-8705,735,968,-77,205,77,35,67
9080,196,-1252,-8240,255,1434,-335,-184,82,34,62
9090,197,-1427,-7354,1233,1182,-861,-465,82,34,62
9100,198,-1867,-6677,11,1106,-944,-625,83,33,55
9110,199,-755,-6994,496,490,-1089,-569,83,33,55
9120,200,-470,-6877,667,-35,-665,-474,82,36,58
9130,201,336,-6537,1145,-392,12,-422,82,36,58
9140,202,964,-6503,880,-338,165,-349,75,37,55
9150,203,1486,-5655,865,127,-58,-243,75,37,55
9160,204,905,-4986,522,526,-724,-104,80,38,58
9170,205,390,-4077,204,955,-939,15,80,38,58
9180,206,175,-3125,557,1019,-1068,232,76,34,58
9190,207,-342,-1888,547,852,-1116,422,76,34,58
9200,208,-347,-1258,818,955,-980,628,75,33,55
9210,209,-274,-96,577,1344,-984,806,75,33,55
9220,210,-844,1239,1395,1531,-899,900,78,30,46
9230,211,-1502,-3764,4674,94,-371,1007,78,30,46
9240,212,-1353,4156,1499,-55,-685,892,79,27,41
9250,213,-1064,4936,1669,-205,-361,704,79,27,41
9260,214,175,4973,1880,-352,326,713,84,26,48
9270,215,1060,4231,1124,-333,623,937,84,26,48
9280,216,1366,3725,-161,-177,566,1044,77,23,41
9290,217,1530,3000,-348,-95,105,1085,77,23,41
9300,218,926,2110,-244,118,102,1036,83,27,47
9310,219,529,470,727,-153,38,976,83,27,47
9320,220,630,623,5308,-1147,-6,864,86,22,44
9330,221,1759,232,4714,-415,306,346,86,22,44
9340,222,-2648,-17,13507,-4431,-2340,-401,95,23,41
9350,223,-6222,709,1456,-5587,-1973,-899,95,23,41
9360,224,-9054,-9262,-5028,-1800,-2580,-1822,89,25,49
9370,225,-6685,-10635,-1272,-997,-2326,-2603,89,25,49
9380,226,826,-14516,3313,1052,-169,-2541,84,24,52
9390,227,7103,-19105,8512,-678,-473,-931,84,24,52
9400,228,7902,-13303,2084,329,1400,205,75,31,51
9410,229,4051,-4873,493,1746,470,-185,75,31,51
9420,230,2173,-5473,3423,1748,631,-680,76,34,50
9430,231,927,-8219,2289,373,-58,-740,76,34,50
9440,232,-3393,-9385,334,-425,206,-735,70,36,48
9450,233,-4157,-7762,-1476,-118,1201,-638,70,36,48
9460,234,-2471,-9914,1030,593,1271,-247,76,34,48
9470,235,-794,-9786,1136,1058,703,337,76,34,48
9480,236,300,-7044,1274,1396,318,702,71,39,53
9490,237,196,-5642,1655,1388,695,688,71,39,53
9500,238,169,-4683,1433,902,1040,505,71,35,49
9510,239,-52,-4287,927,332,874,343,71,35,49
9520,240,-1116,-4178,650,-175,507,233,78,30,42
9530,241,-2266,-3879,593,-353,143,129,78,30,42
9540,242,-3322,-4100,649,-162,-65,51,87,29,49
9550,243,-3160,-3607,936,411,142,-45,87,29,49
9560,244,-2688,-3014,1021,875,-78,-57,78,32,50
9570,245,-2257,-2079,1214,1104,-474,-108,78,32,50
9580,246,-2004,-1261,1412,1126,-290,-251,82,26,48
9590,247,-892,-503,1077,1156,40,-489,82,26,48
9600,248,-67,1004,-7,1365,26,-730,74,24,42
9610,249,605,2265,437,650,-210,-943,74,24,42
9620,250,1545,-477,1384,-630,323,-1227,77,27,45
9630,251,2979,4609,1323,-1180,-225,-1460,77,27,45
9640,252,3460,4447,811,-1741,20,-1419,78,28,38
9650,253,3431,4168,-174,-1697,506,-1211,78,28,38
9660,254,2338,3374,-351,-1214,1178,-935,67,35,45
9670,255,1964,1793,271,-426,541,-649,67,35,45
9680,0,832,1667,659,-332,204,-453,71,35,45
9690,1,462,1491,121,-356,88,-226,71,35,45
9700,2,-17,910,138,-307,179,-46,69,37,47
9710,3,-420,229,-287,-400,277,90,69,37,47
9720,4,-962,-1024,319,-1080,17,231,69,41,53
9730,5,-2561,-1192,884,-1881,-560,257,69,41,53
9740,6,-3756,-1476,3226,194,372,15,69,41,53
9750,7,-9351,-4764,20305,-3259,1677,844,69,41,53
9760,8,8696,-13618,-5087,-2767,8168,1975,71,39,55
9770,9,15371,-21901,2351,-609,3192,3637,71,39,55
9780,10,-4273,-10007,-1182,1298,-1121,2598,78,38,72
9790,11,-8427,-5709,6240,431,-2471,1010,78,38,72
9800,12,-7985,-3912,2381,1135,-14,-361,85,33,73
9810,13,-5122,-8982,1617,-293,42,-68,85,33,73
9820,14,-2830,-7779,-428,434,-545,-17,80,30,70
9830,15,-1448,-9231,1617,360,-839,-120,80,30,70
9840,16,630,-11803,-1,243,-549,-53,83,31,65
9850,17,227,-10146,-54,1196,-393,-29,83,31,65
9860,18,-533,-8163,1014,1348,-220,-230,78,30,60
9870,19,-554,-7668,923,1362,-363,-550,78,30,60
9880,20,-270,-7142,854,1265,-661,-803,80,26,66
9890,21,-114,-7576,882,548,-829,-947,80,26,66
9900,22,525,-8101,521,-136,-441,-880,79,31,53
9910,23,919,-7843,1125,-304,322,-782,79,31,53
9920,24,1121,-6942,1402,-188,574,-753,72,36,56
9930,25,557,-5937,736,164,235,-662,72,36,56
9940,26,-402,-4854,881,180,-253,-536,76,36,56
9950,27,-1021,-4095,-542,445,-716,-392,76,36,56
9960,28,-889,-3495,-425,826,-685,-243,76,34,56
9970,29,-732,-2266,-426,989,-571,-78,76,34,56
9980,30,-699,-1057,-83,1142,-404,94,76,36,54
9990,31,-139,86,131,1245,-450,307,76,36,54
10000,32,-457,1230,1087,1359,-704,578,71,33,53
10010,33,-520,2059,1619,991,-890,790,71,33,53
10020,34,-439,3070,105,-14,-585,1006,75,33,47
10030,35,-1023,4216,835,-323,-416,1074,75,33,47
10040,36,-842,4268,1661,-371,195,1070,78,28,44
10050,37,-263,4352,1548,-199,923,945,78,28,44
10060,38,651,3616,569,220,1108,891,81,29,47
10070,39,1034,2875,519,188,755,977,81,29,47
10080,40,530,2570,691,-219,414,1017,83,31,45
10090,41,320,1260,192,-262,177,1013,83,31,45
10100,42,125,30,134,-622,-206,905,81,29,51
10110,43,-179,222,-128,-813,-330,716,81,29,51
10120,44,-18,-222,924,-886,-276,517,83,23,49
10130,45,416,737,6835,-364,535,174,83,23,49
10140,46,-2207,-1814,20792,-3020,-1524,-808,88,24,52
10150,47,-9931,-332,-1403,-6895,-1259,-1550,88,24,52
10160,48,-8707,-13493,-1000,-712,-4292,-2800,84,24,54
10170,49,-5727,-10506,-2403,1379,-4140,-3064,84,24,54
10180,50,-2140,-11598,5303,746,-1250,-2364,77,31,55
10190,51,14784,-17147,11498,-780,1178,22,77,31,55
10200,52,8646,-11164,716,190,676,1009,72,34,46
10210,53,3356,-4962,-119,1328,309,441,72,34,46
10220,54,1955,-5934,2939,1098,1017,-229,76,34,46
10230,55,1238,-6427,1322,668,489,-723,76,34,46
10240,56,-2292,-8742,1613,-131,-147,-838,72,32,50
10250,57,-4284,-9605,-463,-458,144,-783,72,32,50
10260,58,-3357,-10606,200,531,581,-701,77,31,45
10270,59,-916,-9234,1117,1081,722,-382,77,31,45
10280,60,134,-7293,1677,1092,417,9,70,34,52
10290,61,253,-5791,1430,1005,540,223,70,34,52
10300,62,292,-5425,1283,681,765,255,72,32,48
10310,63,-61,-5344,888,247,831,180,72,32,48
10320,64,-911,-5429,741,215,437,117,75,35,45
10330,65,-2158,-5452,1074,523,174,11,75,35,45
10340,66,-3089,-5160,1596,719,190,-73,74,32,46
10350,67,-2757,-4206,1612,567,363,-46,74,32,46
10360,68,-2301,-3019,1169,453,242,-31,72,36,46
10370,69,-1802,-1838,1243,520,77,-41,72,36,46
10380,70,-1670,-1514,1637,511,-106,-154,75,35,45
10390,71,-1181,-454,662,763,-54,-402,75,35,45
10400,72,-1063,811,67,983,-234,-656,76,32,46
10410,73,-811,2528,793,804,-90,-862,76,32,46
10420,74,282,2211,959,214,334,-1055,76,32,42
10430,75,634,4950,1249,-682,503,-1368,76,32,42
10440,76,1647,5331,-1,-1319,214,-1584,65,29,39
10450,77,2279,4941,-3,-1127,49,-1396,65,29,39
10460,78,1881,4325,92,-812,130,-1034,67,39,43
10470,79,1252,3281,421,-921,255,-746,67,39,43
10480,80,1094,1872,645,-867,48,-598,62,38,44
10490,81,739,1044,930,-642,211,-512,62,38,44
10500,82,860,883,103,-534,331,-416,66,42,48
10510,83,722,509,-529,-102,117,-240,66,42,48
10520,84,320,-240,-815,291,-53,-37,68,40,48
10530,85,-526,-1462,-149,298,-569,168,68,40,48
10540,86,-4273,-755,7526,-1879,-1126,263,64,46,48
10550,87,-7664,-3972,22635,-2539,708,726,64,46,48
10560,88,5502,-10326,1038,-5201,9348,1907,63,41,49
10570,89,15044,-25229,1757,-3052,3919,3610,63,41,49
10580,90,-3227,-10272,-1269,1322,-194,2669,72,48,66
10590,91,-8516,-4329,4594,1767,-1182,1075,72,48,66
10600,92,-6837,-3539,3802,771,-79,-20,79,41,63
10610,93,-4667,-5597,2754,-1,217,-17,79,41,63
10620,94,-2697,-7098,8,-795,-165,483,76,40,66
10630,95,-923,-6760,-1005,139,-749,229,76,40,66
10640,96,-116,-12600,1444,80,-470,117,82,38,70
10650,97,732,-12227,-213,843,-959,244,82,38,70
10660,98,-1796,-8064,643,1266,-316,-3,77,37,67
10670,99,-780,-8366,418,1297,-209,-280,77,37,67
10680,100,-1639,-7700,707,1224,-851,-482,77,37,65
10690,101,-1210,-7601,808,739,-1065,-524,77,37,65
10700,102,-367,-7929,193,116,-947,-471,82,30,54
10710,103,257,-8018,454,-538,-589,-393,82,30,54
10720,104,471,-6798,1066,-599,16,-348,76,42,54
10730,105,290,-5855,634,176,-24,-264,76,42,54
10740,106,-409,-4989,625,770,-343,-156,79,39,53
10750,107,-325,-4523,242,807,-626,12,79,39,53
10760,108,-354,-3491,225,640,-640,134,76,38,52
10770,109,23,-2889,-352,482,-545,228,76,38,52
10780,110,568,-1769,-371,794,-569,446,78,36,50
10790,111,306,-1234,608,1035,-724,702,78,36,50
10800,112,164,-190,781,1758,-939,842,79,39,51
10810,113,-214,543,2513,1865,-878,906,79,39,51
10820,114,87,2559,855,150,-502,986,74,36,48
10830,115,-26,3345,1865,-937,-328,1010,74,36,48
10840,116,155,4360,1693,-1161,65,932,75,31,45
10850,117,279,4375,1003,-706,341,878,75,31,45
10860,118,576,3929,726,-135,578,831,79,31,41
10870,119,1392,3487,659,196,608,843,79,31,41
10880,120,1051,2709,626,124,566,818,85,29,45
10890,121,505,1545,299,54,405,754,85,29,45
10900,122,15,525,68,-122,207,684,83,27,51
10910,123,-345,482,-111,-269,126,561,83,27,51
10920,124,-499,85,67,-438,172,440,86,32,48
10930,125,445,-50,2336,-813,265,337,86,32,48
10940,126,679,-575,7954,-83,1109,-155,84,22,50
10950,127,-2787,-731,17685,-4940,-2210,-888,84,22,50
10960,128,-9401,-830,-3808,-5055,-1655,-1565,91,27,51
10970,129,-6571,-13346,-3330,-634,-3150,-2530,91,27,51
10980,130,-4438,-15262,1375,1944,-1234,-2447,84,34,56
10990,131,1551,-13936,6241,1103,-1098,-1191,84,34,56
11000,132,8360,-11167,3444,-669,600,696,72,34,56
11010,133,4892,-9288,-271,775,-568,471,72,34,56
11020,134,1703,-5599,1803,1577,361,-314,83,35,51
11030,135,1569,-6106,2026,1301,965,-651,83,35,51
11040,136,257,-7274,1256,22,99,-641,75,33,51
11050,137,-2980,-9052,-116,-561,206,-620,75,33,51
11060,138,-3350,-10640,-861,271,801,-458,71,33,47
11070,139,-1510,-9718,717,1007,794,-80,71,33,47
11080,140,-176,-7535,1597,794,475,367,73,33,51
11090,141,312,-6730,1398,775,250,579,73,33,51
11100,142,209,-6173,1204,885,480,553,77,37,47
11110,143,-398,-5527,834,773,586,394,77,37,47
11120,144,-1132,-5044,944,491,673,191,79,29,51
11130,145,-1989,-5044,1186,190,668,21,79,29,51
11140,146,-2614,-5302,1167,149,838,-116,81,31,51
11150,147,-2223,-4526,1016,636,953,-135,81,31,51
11160,148,-1659,-2998,686,811,461,-80,82,30,46
11170,149,-1432,-1914,920,611,-43,-22,82,30,46
11180,150,-1570,-935,1175,343,-201,-67,79,33,49
11190,151,-1222,-266,902,160,-147,-187,79,33,49
11200,152,-909,536,839,103,46,-330,83,29,49
11210,153,-721,1238,771,-45,27,-497,83,29,49
11220,154,-750,2726,1440,-484,209,-704,80,30,46
11230,155,72,3834,2304,-1084,233,-907,80,30,46
11240,156,1196,4553,1910,-1477,70,-1082,80,28,46
11250,157,2653,4148,855,-1199,23,-999,80,28,46
11260,158,2801,3044,-158,-466,357,-858,75,35,47
11270,159,2101,2371,-291,-82,439,-766,75,35,47
11280,160,1417,1923,114,-9,370,-678,79,39,53
11290,161,1018,1453,581,-119,246,-529,79,39,53
11300,162,625,1034,457,-226,-95,-337,71,37,55
11310,163,-1373,356,14527,-1643,-6,-28,71,37,55
11320,164,-2178,-938,7039,1295,972,170,74,34,54
11330,165,-104,-2472,9362,-2084,275,1317,74,34,54
11340,166,9274,-6082,-650,-3969,3529,2428,71,41,53
11350,167,4204,-15444,-3230,-2583,4387,3190,71,41,53
11360,168,-1329,-13359,1866,-1272,1474,2809,76,38,62
11370,169,-8356,-9354,6444,-825,-135,1550,76,38,62
11380,170,-9267,-11225,-146,1710,936,3,83,37,73
11390,171,-8225,-6240,1358,2419,-719,14,83,37,73
11400,172,-5131,-4148,2798,398,-802,616,92,30,74
11410,173,-2691,-6116,1735,-885,235,567,92,30,74
11420,174,1381,-8445,1683,-26,-450,382,84,34,64
11430,175,1795,-11688,602,-67,-1109,449,84,34,64
11440,176,487,-10780,509,688,-1115,399,92,32,62
11450,177,-1443,-7773,-294,945,-858,-95,92,32,62
11460,178,-1300,-8282,795,1937,-1000,-391,85,23,63
11470,179,-1421,-6666,858,1603,-1399,-580,85,23,63
11480,180,-792,-6873,782,464,-1265,-632,88,28,58
11490,181,-166,-6503,511,-192,-1092,-628,88,28,58
11500,182,24,-6146,1031,-348,-828,-609,84,30,56
11510,183,-539,-5724,1269,-269,-939,-643,84,30,56
11520,184,-131,-5325,771,9,-666,-622,84,32,52
11530,185,734,-5459,218,246,-498,-508,84,32,52
11540,186,923,-5138,304,406,-778,-378,85,31,51
11550,187,759,-4499,297,697,-782,-210,85,31,51
11560,188,506,-3442,375,1163,-863,44,81,33,51
11570,189,605,-2527,1232,1312,-735,323,81,33,51
11580,190,688,-1345,1421,1038,-707,607,81,31,45
11590,191,171,-275,1533,826,-918,840,81,31,45
11600,192,-363,664,1785,542,-1186,1027,81,29,41
11610,193,-1249,2006,1465,160,-1151,1136,81,29,41
11620,194,-1740,3155,1173,-244,-764,1178,79,29,41
11630,195,-1277,4459,799,-199,-57,1123,79,29,41
11640,196,180,4863,1978,-136,456,1013,86,22,38
11650,197,1072,4177,1411,-418,767,931,86,22,38
11660,198,1103,3165,355,-701,446,873,89,27,41
11670,199,971,2414,-393,-733,150,809,89,27,41
11680,200,824,1824,-379,-794,14,718,86,22,48
11690,201,629,1204,-93,-854,-3,562,86,22,48
11700,202,643,576,-32,-811,-34,323,89,19,39
11710,203,848,157,687,-746,78,86,89,19,39
11720,204,711,13,11081,-810,323,-160,90,22,44
11730,205,-57,-2975,11069,14,-510,-1047,90,22,44
11740,206,-6687,-673,8399,-6287,-2613,-2009,92,20,48
11750,207,-7753,-6252,-5917,-2927,-2676,-2547,92,20,48
11760,208,-5867,-13472,-247,384,-2591,-3189,85,29,49
11770,209,-1168,-12694,4657,1773,-779,-2798,85,29,49
11780,210,12112,-16759,8032,10,1210,-477,79,35,49
11790,211,8481,-11164,1680,-123,1367,781,79,35,49
11800,212,3221,-5745,-204,987,493,-152,77,39,47
11810,213,1699,-6220,3568,1526,1858,-764,77,39,47
11820,214,1543,-7421,2466,868,1646,-934,75,39,47
11830,215,-1844,-8394,87,215,493,-698,75,39,47
11840,216,-3701,-9590,-1038,251,1571,-631,73,35,47
11850,217,-2443,-10315,-617,360,1953,-641,73,35,47
11860,218,-1187,-9131,822,697,1445,-291,77,37,49
11870,219,-840,-7846,1384,652,1493,104,77,37,49
11880,220,-596,-7126,494,821,1392,311,75,45,51
11890,221,-1077,-6368,178,615,1109,352,75,45,51
11900,222,-1853,-5889,176,137,861,383,75,35,53
11910,223,-3017,-6063,571,-203,807,402,75,35,53
11920,224,-3520,-5873,586,-235,762,320,81,31,53
11930,225,-3611,-5509,585,174,503,179,81,31,53
11940,226,-2679,-4989,781,681,583,80,78,36,52
11950,227,-2363,-3515,1109,865,101,7,78,36,52
11960,228,-2152,-1921,1243,1012,-174,-217,77,33,53
11970,229,-1894,-1560,1508,1105,-144,-512,77,33,53
11980,230,-1034,-229,395,1189,-141,-789,80,32,52
11990,231,-1305,1594,1270,892,-296,-1070,80,32,52
12000,232,-581,3389,1637,-139,34,-1344,79,35,47
12010,233,415,4987,1784,-1327,360,-1624,79,35,47
12020,234,1812,6528,1264,-2057,106,-1814,73,39,45
12030,235,2903,5742,88,-1524,-116,-1607,73,39,45
12040,236,2481,3976,-79,-168,133,-1292,67,43,53
12050,237,2100,2925,625,300,352,-1016,67,43,53
12060,238,1381,2473,1065,198,239,-790,67,45,57
12070,239,1129,2101,529,-95,104,-634,67,45,57
12080,240,739,1496,55,-201,-245,-478,62,40,56
12090,241,111,636,-96,-269,-226,-265,62,40,56
12100,242,-1756,-723,6151,-889,-691,44,63,47,55
12110,243,-3362,-1743,3971,890,56,160,63,47,55
12120,244,-5796,-3706,18746,-2129,734,1219,64,46,50
12130,245,10125,-9999,-2789,-4964,6232,2583,64,46,50
12140,246,8691,-21806,-3361,-3060,5354,3603,66,40,58
12150,247,-1784,-8507,1735,552,-22,3017,66,40,58
12160,248,-10600,-6973,4734,-26,9,1226,77,45,71
12170,249,-9717,-8078,669,1964,-104,-49,77,45,71
12180,250,-7495,-5222,2320,1062,-527,214,77,39,73
12190,251,-3704,-6554,1078,-247,-537,815,77,39,73
12200,252,-1462,-6926,463,-244,-751,690,82,38,70
12210,253,-32,-9410,1193,262,-742,390,82,38,70
12220,254,514,-11837,-144,646,-695,384,82,34,66
12230,255,-511,-10302,911,771,-752,134,82,34,66
12240,0,-1674,-7767,1077,1107,-941,-393,84,36,64
12250,1,-949,-7387,-90,1775,-928,-754,84,36,64
12260,2,-429,-7019,1006,1345,-1349,-902,78,40,58
12270,3,431,-6926,729,136,-1136,-950,78,40,58
12280,4,977,-6345,1231,-656,-751,-855,79,35,57
12290,5,832,-5908,1463,-991,-680,-645,79,35,57
12300,6,501,-5196,1587,-807,-803,-507,81,35,61
12310,7,-75,-4950,786,-382,-866,-386,81,35,61
12320,8,-192,-4608,126,-160,-926,-274,72,40,56
12330,9,-1,-3753,-715,144,-989,-162,72,40,56
12340,10,328,-2827,-943,625,-895,28,76,42,54
12350,11,86,-1474,-490,1098,-676,155,76,42,54
12360,12,219,-317,372,1335,-876,380,73,37,53
12370,13,291,885,1056,1241,-924,657,73,37,53
12380,14,142,1677,734,972,-1148,924,76,34,48
12390,15,-84,2337,1043,715,-1167,1094,76,34,48
12400,16,-537,2899,1582,139,-505,1105,75,35,45
12410,17,-330,4698,1131,-285,258,973,75,35,45
12420,18,454,4356,2276,-342,950,801,75,31,47
12430,19,947,3884,1665,-415,1476,780,75,31,47
12440,20,1440,3261,363,-485,1021,881,79,31,43
12450,21,1356,2601,-152,-374,467,963,79,31,43
12460,22,608,1633,100,-79,185,969,81,29,53
12470,23,-123,638,234,-229,39,914,81,29,53
12480,24,-572,391,253,-449,84,808,83,25,49
12490,25,168,285,1249,-578,343,741,83,25,49
12500,26,1348,811,4841,122,1512,448,83,25,53
12510,27,-945,-1228,21223,-3816,-1434,-463,83,25,53
12520,28,-10843,899,4729,-8308,-549,-1124,83,29,53
12530,29,-7376,-19156,-3383,-1684,-4616,-2981,83,29,53
12540,30,-9399,-13639,2212,2763,-2399,-3191,83,31,65
12550,31,-2321,-13222,4783,743,-2334,-2394,83,31,65
12560,32,12008,-14961,6991,-820,1150,-202,74,34,50
12570,33,8112,-10988,161,27,1036,438,74,34,50
12580,34,3746,-4304,717,1765,1024,-105,71,39,55
12590,35,2231,-5655,2631,1317,977,-548,71,39,55
12600,36,219,-8903,1707,230,334,-796,76,38,56
12610,37,-3365,-8166,-399,362,494,-838,76,38,56
12620,38,-3621,-9742,-1413,-5,699,-693,71,37,55
12630,39,-1860,-10819,-446,772,699,-406,71,37,55
12640,40,-185,-8336,808,1355,319,-52,71,39,53
12650,41,127,-6783,1418,1293,568,151,71,39,53
12660,42,323,-5344,1329,1326,911,159,71,41,51
12670,43,357,-4914,1443,860,889,41,71,41,51
12680,44,-453,-4893,919,432,439,-81,72,38,54
12690,45,-1710,-5144,400,215,-187,-62,72,38,54
12700,46,-3210,-4737,654,323,-442,42,74,36,52
12710,47,-3124,-4192,1161,707,250,158,74,36,52
12720,48,-2714,-3031,895,994,330,267,71,35,47
12730,49,-2174,-1905,1736,843,343,259,71,35,47
12740,50,-1700,-1257,1914,843,197,130,75,37,49
12750,51,-1178,21,1472,725,356,-128,75,37,49
12760,52,-996,1512,558,410,150,-423,72,34,48
12770,53,-712,2808,659,-262,135,-710,72,34,48
12780,54,-4,3643,944,-935,290,-911,76,34,42
12790,55,766,4325,1226,-1578,219,-1122,76,34,42
12800,56,1764,4931,1071,-1876,53,-1212,73,35,43
12810,57,2076,4630,481,-1298,-305,-1087,73,35,43
12820,58,1673,4208,391,-479,-153,-889,72,36,48
12830,59,1297,2641,543,-243,-87,-756,72,36,48
12840,60,993,2102,854,-242,-117,-628,65,41,57
12850,61,1008,1693,832,-443,-230,-481,65,41,57
12860,62,952,1195,46,-397,-400,-356,63,43,57
12870,63,613,690,-357,-105,-496,-216,63,43,57
12880,64,-168,-7,-207,68,-683,-76,62,46,52
12890,65,-3291,-986,14368,-3453,-992,236,62,46,52
12900,66,-3819,-2083,12912,75,9,493,61,43,51
12910,67,6848,-8592,9824,-6374,4272,1654,61,43,51
12920,68,9787,-14113,-1726,-2420,7679,3401,63,45,53
12930,69,5433,-24498,-5860,-3068,541,3267,63,45,53
12940,70,-11048,-13976,3256,1997,-889,1338,68,44,76
12950,71,-7852,-6261,4758,2752,-817,228,68,44,76
12960,72,-7723,-5709,3296,1655,-1031,-89,78,32,76
12970,73,-3916,-6200,613,-240,-306,889,78,32,76
12980,74,-2065,-6678,-1038,-317,-116,1185,79,35,63
12990,75,307,-11157,1184,-497,-308,951,79,35,63
13000,76,1583,-12217,-77,617,-1033,683,77,35,65
13010,77,13,-8243,458,1430,-198,346,77,35,65
13020,78,-1150,-7470,663,1484,-770,-118,81,37,67
13030,79,-1610,-7015,539,1908,-1261,-617,81,37,67
13040,80,-1084,-6796,864,1812,-1287,-873,82,32,60
13050,81,-216,-7056,856,542,-1055,-928,82,32,60
13060,82,780,-6802,102,-728,-614,-765,80,34,54
13070,83,879,-6499,626,-1125,-305,-482,80,34,54
13080,84,1025,-5634,2052,-1091,-98,-264,72,32,56
13090,85,753,-5845,1305,-696,-368,-28,72,32,56
13100,86,-28,-5042,466,-95,-776,126,76,34,58
13110,87,-255,-4176,-166,402,-872,131,76,34,58
13120,88,-350,-3152,-484,661,-996,162,73,41,57
13130,89,-398,-1793,-283,857,-994,214,73,41,57
13140,90,-261,-1185,126,1108,-985,264,76,32,56
13150,91,-163,-377,836,1616,-1006,402,76,32,56
13160,92,44,760,1577,1924,-1086,616,74,38,48
13170,93,169,1732,3056,1594,-992,779,74,38,48
13180,94,-234,2309,3511,600,-635,869,77,29,45
13190,95,-139,3372,2250,-291,-81,843,77,29,45
13200,96,-192,4264,1723,-723,489,730,75,29,41
13210,97,780,3894,789,-649,831,725,75,29,41
13220,98,1946,3005,-44,-482,1194,831,76,32,40
13230,99,2136,2553,-305,-270,870,924,76,32,40
13240,100,1591,1960,-421,-77,695,936,77,29,43
13250,101,711,1499,-178,-7,547,903,77,29,43
13260,102,-356,1170,-41,-153,666,744,81,25,45
13270,103,-268,221,-399,-455,898,490,81,25,45
13280,104,1425,-3,5810,-2080,777,423,81,29,49
13290,105,460,-1738,9691,-500,1007,-388,81,29,49
13300,106,-7232,714,17089,-6792,-3112,-1386,83,29,55
13310,107,-12898,-3663,-11747,-5132,-1543,-2421,83,29,55
13320,108,-10781,-16302,-4817,-1065,-3800,-3059,79,31,57
13330,109,-1825,-16269,3381,2397,-1719,-2710,79,31,57
13340,110,9482,-17464,16071,841,-621,-1086,77,35,55
13350,111,8573,-10562,766,-1014,-174,756,77,35,55
13360,112,4699,-6183,-1639,450,9,329,67,39,49
13370,113,1975,-4312,-50,2071,291,-384,67,39,49
13380,114,1592,-8202,2071,1218,710,-626,73,37,53
13390,115,-525,-10231,1286,746,268,-654,73,37,53
13400,116,-3960,-9172,-162,214,859,-742,63,37,49
13410,117,-2784,-8727,-1524,363,1094,-708,63,37,49
13420,118,-1474,-8079,161,1034,640,-327,67,39,55
13430,119,-905,-7539,1274,988,322,142,67,39,55
13440,120,113,-6814,1519,1316,403,433,70,42,50
13450,121,39,-5743,1453,1513,475,459,70,42,50
13460,122,-843,-4881,1072,1114,310,329,69,35,51
13470,123,-1341,-4537,1171,745,291,190,69,35,51
13480,124,-2152,-4652,1073,524,211,137,72,34,50
13490,125,-2561,-4468,1076,675,318,158,72,34,50
13500,126,-2053,-3962,1376,658,474,203,69,33,45
13510,127,-1401,-2955,354,693,228,228,69,33,45
13520,128,-1656,-2452,682,749,47,238,74,32,42
13530,129,-1395,-1137,337,724,49,95,74,32,42
13540,130,-1074,576,-228,675,354,-189,73,31,41
13550,131,-821,2024,208,69,767,-518,73,31,41
13560,132,-1,2433,1199,-1281,933,-805,78,38,42
13570,133,772,3108,1937,-2356,822,-1084,78,38,42
13580,134,1316,4593,1654,-2207,546,-1316,69,37,43
13590,135,2700,5150,1192,-1497,448,-1365,69,37,43
13600,136,2693,3741,505,-587,311,-1187,70,40,52
13610,137,1876,2508,97,12,697,-1029,70,40,52
13620,138,1092,2055,688,233,400,-822,68,40,52
13630,139,307,1644,557,-11,66,-625,68,40,52
13640,140,-6,1376,21,-165,-203,-500,69,39,53
13650,141,-46,928,-59,-157,-58,-390,69,39,53
13660,142,-2381,1117,14295,-1049,522,-209,64,44,56
13670,143,-3986,-765,9748,1625,230,-41,64,44,56
13680,144,402,-2416,9139,-2725,666,1155,63,41,59
13690,145,8747,-7160,200,-5369,3613,2292,63,41,59
13700,146,3393,-13352,-3463,-2909,4942,2930,69,45,59
13710,147,-668,-21144,-668,-932,431,2443,69,45,59
13720,148,-6109,-15198,8892,612,896,742,78,38,70
13730,149,-10063,-8490,2372,2657,-536,-11,78,38,70
13740,150,-7846,-5822,2827,1703,-882,304,75,37,71
13750,151,-4831,-4410,2433,-604,197,765,75,37,71
13760,152,-1292,-6246,-323,-1450,271,740,78,42,66
13770,153,805,-10409,1735,-275,-1269,673,78,42,66
13780,154,696,-11320,817,468,-1410,606,77,35,67
13790,155,-450,-10108,214,1243,-1331,321,77,35,67
13800,156,-1809,-8577,-88,1902,-1309,-41,83,39,73
13810,157,-1782,-7112,736,2202,-1506,-180,83,39,73
13820,158,-1035,-5823,1471,1631,-1430,-203,74,34,62
13830,159,-99,-5938,1455,170,-1035,-229,74,34,62
13840,160,524,-5791,937,-904,-747,-281,83,35,51
13850,161,649,-5869,946,-1250,-648,-281,83,35,51
13860,162,905,-5541,1182,-926,-542,-219,83,37,55
13870,163,1200,-5708,1218,-397,-587,-134,83,37,55
13880,164,1469,-6085,687,160,-488,6,82,34,60
13890,165,1417,-5534,295,708,-379,116,82,34,60
13900,166,1488,-4631,322,1223,-385,158,82,32,56
13910,167,748,-3022,416,1588,-374,179,82,32,56
13920,168,523,-1491,389,1829,-322,231,80,34,48
13930,169,138,-607,819,1827,-511,345,80,34,48
13940,170,-473,51,1148,1613,-665,497,81,31,51
13950,171,-747,1010,1560,1339,-509,640,81,31,51
13960,172,-1108,1655,2021,939,-172,742,85,29,43
13970,173,-1308,2541,1762,515,343,733,85,29,43
13980,174,-1346,3786,1293,-6,869,646,80,28,36
13990,175,-190,4139,857,-585,1274,600,80,28,36
14000,176,1125,3768,554,-961,1044,696,77,29,41
14010,177,2238,3619,-228,-660,281,804,77,29,41
14020,178,1506,2852,39,-415,-72,930,86,24,42
14030,179,812,2056,-176,-284,-118,1016,86,24,42
14040,180,317,1456,-229,-169,-310,1036,85,23,49
14050,181,-193,880,144,-373,-502,952,85,23,49
14060,182,-583,365,48,-734,-489,793,84,26,48
14070,183,-394,-100,1377,-1130,-196,666,84,26,48
14080,184,652,928,6006,-773,671,288,90,24,46
14090,185,-2692,-928,20255,-4010,-2197,-600,90,24,46
14100,186,-11633,-350,-2082,-6940,-1826,-1099,91,17,47
14110,187,-8744,-13368,-2849,-1767,-4293,-2004,91,17,47
14120,188,-6025,-14163,1250,803,-1324,-2207,90,28,52
14130,189,5267,-18475,6247,781,-1299,-1145,90,28,52
14140,190,9117,-10123,4151,-560,790,431,77,31,51
14150,191,4706,-7873,-591,468,-48,534,77,31,51
14160,192,3733,-3907,647,1976,625,-514,74,28,52
14170,193,2807,-5581,2171,1063,1111,-985,74,28,52
14180,194,1242,-7485,1684,405,305,-1081,76,32,46
14190,195,-3158,-9692,1216,-116,370,-1073,76,32,46
14200,196,-4419,-9954,-851,109,1279,-1077,76,30,44
14210,197,-2667,-10291,-70,711,1314,-789,76,30,44
14220,198,-1083,-8847,458,468,902,-284,78,36,54
14230,199,-180,-7961,184,552,281,94,78,36,54
14240,200,-127,-7002,51,1038,394,190,77,35,49
14250,201,-341,-6114,267,1064,917,68,77,35,49
14260,202,-570,-5457,32,852,1074,-78,80,32,44
14270,203,-1159,-5395,173,792,763,-182,80,32,44
14280,204,-2178,-5488,233,939,495,-227,83,29,49
14290,205,-2409,-5126,501,1348,370,-241,83,29,49
14300,206,-2461,-4769,1070,1139,414,-249,80,30,52
14310,207,-2891,-3696,811,1002,31,-303,80,30,52
14320,208,-2912,-2500,1642,1106,53,-464,78,30,50
14330,209,-1955,-1622,2259,637,161,-564,78,30,50
14340,210,-1246,-231,1320,377,159,-608,77,27,43
14350,211,-1002,1256,1999,-269,354,-703,77,27,43
14360,212,-682,2097,1168,-1148,609,-796,75,29,43
14370,213,177,3463,748,-1754,947,-906,75,29,43
14380,214,672,4598,771,-2379,367,-933,76,32,40
14390,215,1388,5436,-387,-1911,197,-826,76,32,40
14400,216,1342,5826,-675,-681,246,-596,67,41,53
14410,217,1521,4872,175,102,583,-421,67,41,53
14420,218,1793,3083,419,-110,829,-430,77,37,55
14430,219,1692,2361,-72,-394,333,-498,77,37,55
14440,220,1173,1661,-408,-157,-43,-489,67,37,57
14450,221,801,795,-288,201,-173,-396,67,37,57
14460,222,-189,-383,690,636,-357,-328,74,40,52
14470,223,-4078,-179,7325,187,1004,-253,74,40,52
14480,224,-4665,-1063,21366,-1331,1163,277,70,46,54
14490,225,6216,-7742,-328,-4507,4694,1544,70,46,54
14500,226,8528,-14649,-1214,-743,6515,1954,69,43,61
14510,227,-3794,-20560,-219,-2929,-861,1655,69,43,61
14520,228,-9938,-13610,5742,1547,953,124,74,38,74
14530,229,-7962,-5732,3240,3488,-172,-795,74,38,74
14540,230,-6051,-3817,3842,2325,-477,-451,81,37,73
14550,231,-4506,-4764,2471,-767,-218,460,81,37,73
14560,232,-1757,-6856,775,-1878,720,529,73,37,71
14570,233,235,-7907,-1109,-736,-908,467,73,37,71
14580,234,1,-10551,2388,-188,-596,463,77,41,71
14590,235,9,-11076,1022,422,-1318,343,77,41,71
14600,236,-1666,-9436,-32,1052,-1750,28,80,36,70
14610,237,-2284,-7820,21,1849,-1946,-234,80,36,70
14620,238,-1574,-6247,1458,1942,-1874,-391,81,31,65
14630,239,-293,-6014,1252,1264,-1677,-429,81,31,65
14640,240,775,-5897,777,381,-1348,-382,74,30,56
14650,241,1071,-5336,923,-487,-981,-334,74,30,56
14660,242,1099,-4505,897,-999,-780,-290,78,32,52
14670,243,902,-4400,951,-519,-797,-154,78,32,52
14680,244,409,-4655,1500,164,-818,38,76,30,56
14690,245,143,-4240,513,668,-850,123,76,30,56
14700,246,-471,-3932,-442,1112,-906,139,76,40,50
14710,247,-647,-2751,-480,1566,-825,141,76,40,50
14720,248,169,-1584,-324,1759,-396,199,72,38,46
14730,249,642,-584,-195,1775,-404,385,72,38,46
14740,250,778,269,1254,1423,-692,650,76,30,42
14750,251,376,983,2179,725,-967,901,76,30,42
14760,252,64,1532,2743,-198,-1163,1066,73,39,41
14770,253,-285,2561,2224,-760,-1066,1101,73,39,41
14780,254,-706,3437,1002,-735,-592,982,73,33,31
14790,255,-852,3776,769,-673,368,852,73,33,31
14800,0,-251,3221,40,-528,1021,809,77,29,41
14810,1,510,2795,-236,-85,1038,798,77,29,41
14820,2,1288,2186,-381,178,629,815,80,26,44
14830,3,879,1675,-223,201,218,789,80,26,44
14840,4,182,1206,34,8,10,715,75,21,43
14850,5,-211,785,-294,-90,317,606,75,21,43
14860,6,1541,619,5223,-871,1318,611,84,20,42
14870,7,3302,236,4715,-963,2205,112,84,20,42
14880,8,-2592,188,12981,-3046,-2380,-478,85,19,43
14890,9,-9408,1143,1641,-8130,-1834,-900,85,19,43
14900,10,-6228,-17009,-5287,-2936,-3994,-2434,81,25,49
14910,11,-5669,-24489,2834,2491,-296,-2847,81,25,49
14920,12,8964,-16433,12106,1911,481,-777,72,34,52
14930,13,3906,-10187,4196,-370,1032,394,72,34,52
14940,14,5170,-6091,393,-600,1204,-192,77,33,53
14950,15,3368,-4138,60,1443,724,-1080,77,33,53
14960,16,1922,-7067,2878,1432,1245,-1314,77,31,51
14970,17,111,-7959,1697,893,812,-1353,77,31,51
14980,18,-3254,-8478,-365,406,1319,-1202,77,33,51
14990,19,-4482,-9421,-1389,114,1184,-841,77,33,51
15000,20,-2798,-9945,70,424,1383,-378,70,34,52
15010,21,-1275,-8693,609,740,1035,186,70,34,52
15020,22,-844,-6091,833,1277,988,315,74,30,54
15030,23,-326,-5024,1095,1513,1340,222,74,30,54
15040,24,-56,-4588,1240,877,1404,102,74,34,52
15050,25,-706,-5127,852,-37,897,92,74,34,52
15060,26,-2217,-5469,403,-364,375,142,80,34,48
15070,27,-3369,-5221,96,9,229,62,80,34,48
15080,28,-3662,-5445,461,831,226,15,76,34,52
15090,29,-3349,-4183,1138,1208,344,-17,76,34,52
15100,30,-2319,-3266,1438,1315,10,-123,74,34,56
15110,31,-1732,-2264,2080,1280,-173,-283,74,34,56
15120,32,-1027,-595,1410,1201,-293,-425,79,35,49
15130,33,-1242,1504,761,910,-303,-554,79,35,49
15140,34,-1331,3093,1219,-125,243,-773,75,33,43
15150,35,-226,4253,1357,-1742,892,-1065,75,33,43
15160,36,1224,5875,1501,-3083,631,-1283,77,39,47
15170,37,2213,6383,-123,-2384,241,-1154,77,39,47
15180,38,2294,5433,-566,-875,-84,-832,75,39,51
15190,39,1769,4269,241,-67,63,-605,75,39,51
15200,40,1328,3074,673,5,198,-428,69,41,55
15210,41,1063,2155,211,-60,135,-272,69,41,55
15220,42,1030,1458,148,-285,136,-157,65,39,57
15230,43,1086,727,-610,-271,-207,-76,65,39,57
15240,44,485,-221,-703,66,-313,-26,71,39,51
15250,45,-2942,306,16103,-1676,-1,157,71,39,51
15260,46,-3742,-997,24366,-2205,841,753,66,40,58
15270,47,5040,-9625,1978,-3064,3740,2507,66,40,58
15280,48,7971,-16619,-1216,-3212,6783,3179,66,44,60
15290,49,1141,-20149,358,-1926,1236,2385,66,44,60
15300,50,-9019,-10814,8214,669,286,636,72,42,66
15310,51,-9954,-6463,3115,2867,3,-421,72,42,66
15320,52,-7761,-5911,1922,2565,-672,-389,80,36,76
15330,53,-5405,-3742,2430,-282,-589,480,80,36,76
15340,54,-2917,-5710,2244,-1795,385,577,81,39,67
15350,55,-42,-7683,57,-673,-810,624,81,39,67
15360,56,23,-8785,1956,381,-1141,771,82,32,68
15370,57,247,-11075,609,348,-1320,751,82,32,68
15380,58,-1543,-10661,-373,1091,-1556,495,82,28,66
15390,59,-2553,-7916,-102,1879,-1833,241,82,28,66
15400,60,-2108,-6710,782,2022,-1603,-1,80,32,64
15410,61,-913,-6247,403,1525,-1561,-138,80,32,64
15420,62,-47,-5804,192,370,-1607,-264,79,27,61
15430,63,747,-5816,671,-774,-1407,-436,79,27,61
15440,64,1504,-5557,1132,-1045,-900,-519,84,32,54
15450,65,1651,-5279,1190,-429,-756,-379,84,32,54
15460,66,802,-5039,1282,313,-851,-163,79,35,57
15470,67,470,-4440,590,1025,-1067,-2,79,35,57
15480,68,1013,-3720,669,1383,-1035,83,73,35,57
15490,69,493,-2607,477,1492,-859,150,73,35,57
15500,70,636,-1377,402,1356,-655,267,76,30,48
15510,71,573,-526,834,982,-531,440,76,30,48
15520,72,705,632,805,707,-451,645,81,29,45
15530,73,570,1320,1009,465,-892,858,81,29,45
15540,74,49,2174,1276,197,-958,1001,72,30,40
15550,75,-290,2789,2068,-162,-785,1037,72,30,40
15560,76,-677,3266,1370,-445,-140,917,79,23,33
15570,77,-790,3055,1140,-740,701,826,79,23,33
15580,78,-410,2840,510,-538,990,764,82,26,42
15590,79,367,2654,101,-34,1008,717,82,26,42
15600,80,1073,1928,-275,192,573,765,86,26,42
15610,81,786,1505,-171,257,165,823,86,26,42
15620,82,224,1066,-122,51,-72,836,86,26,42
15630,83,-30,682,214,-211,-36,759,86,26,42
15640,84,439,377,2376,-771,211,675,87,23,41
15650,85,2448,794,4527,-542,1472,374,87,23,41
15660,86,-1240,-1,20099,-3038,-1596,-366,88,20,44
15670,87,-8848,610,2369,-8348,-1383,-954,88,20,44
15680,88,-7662,-11908,-7201,-2103,-5438,-1977,88,24,48
15690,89,-7861,-15219,1717,886,-985,-2651,88,24,48
15700,90,771,-14373,3458,1623,-1731,-2059,80,28,52
15710,91,8380,-14458,8436,-952,417,-207,80,28,52
15720,92,6392,-11347,1738,-333,1145,148,78,30,48
15730,93,4290,-5075,-800,1825,1153,-593,78,30,48
15740,94,2763,-6054,2936,1527,1173,-862,77,35,47
15750,95,1105,-7787,1962,330,736,-974,77,35,47
15760,96,-2434,-8657,356,145,942,-996,76,34,42
15770,97,-3252,-9945,-1195,0,1445,-781,76,34,42
15780,98,-2284,-10639,251,676,1778,-478,80,32,50
15790,99,-728,-8662,990,1014,1149,26,80,32,50
15800,100,-559,-6890,1342,1020,817,262,78,34,54
15810,101,-412,-5628,1181,1152,1166,198,78,34,54
15820,102,-549,-4903,950,790,1031,36,79,33,47
15830,103,-891,-4522,514,348,739,-99,79,33,47
15840,104,-1758,-4437,-50,288,156,-64,77,31,49
15850,105,-2981,-4475,8,410,-172,65,77,31,49
15860,106,-3986,-4341,406,576,40,118,80,38,50
15870,107,-3377,-3954,932,784,251,141,80,38,50
15880,108,-2174,-2951,1230,1162,722,82,72,30,50
15890,109,-1283,-2416,1545,1234,387,-48,72,30,50
15900,110,-836,-1138,1299,1167,-114,-308,79,33,45
15910,111,-982,620,1732,892,-327,-608,79,33,45
15920,112,-846,2412,1644,-36,-51,-924,76,36,46
15930,113,-231,3018,1157,-1510,110,-1138,76,36,46
15940,114,394,4414,1266,-2614,97,-1327,74,28,42
15950,115,1341,5573,493,-2519,-306,-1467,74,28,42
15960,116,1783,5210,297,-1477,-618,-1330,73,33,51
15970,117,1357,4196,543,-279,-381,-1091,73,33,51
15980,118,1014,3332,685,-9,-27,-860,74,38,52
15990,119,720,2743,390,-128,238,-617,74,38,52
16000,120,763,2068,63,-83,370,-370,70,44,52
16010,121,847,1401,-50,31,271,-234,70,44,52
16020,122,910,838,-366,126,-46,-175,64,42,56
16030,123,159,-116,191,51,-737,-81,64,42,56
16040,124,-3645,-515,7983,-1374,364,36,68,38,50
16050,125,-3633,-1381,15688,-1033,301,736,68,38,50
16060,126,4877,-8583,3161,-4611,4163,2204,68,40,54
16070,127,9602,-15048,177,-2686,6162,2407,68,40,54
16080,128,-27,-17357,2288,-2471,1095,2078,68,44,60
16090,129,-9178,-11294,4718,-351,-1090,725,68,44,60
16100,130,-8230,-10141,1460,2359,-288,-341,75,41,75
16110,131,-6330,-5138,2127,2870,-638,-370,75,41,75
16120,132,-3476,-4863,2127,501,-683,686,74,38,70
16130,133,-899,-5501,-217,-492,-901,1198,74,38,70
16140,134,-1359,-10145,2454,-937,-514,1118,75,39,69
16150,135,-42,-11134,-1368,-407,-425,1064,75,39,69
16160,136,-1032,-12777,299,986,-920,716,80,36,66
16170,137,-2625,-8988,688,1657,-1534,81,80,36,66
16180,138,-2434,-7168,968,2031,-1619,-405,79,33,59
16190,139,-935,-6687,749,2035,-1343,-726,79,33,59
16200,140,213,-6291,767,1043,-1167,-821,82,30,56
16210,141,914,-5655,140,-190,-1335,-781,82,30,56
16220,142,1108,-5552,403,-583,-1405,-658,83,35,53
16230,143,820,-5571,1435,-693,-1011,-545,83,35,53
16240,144,743,-5550,1356,-300,-833,-391,77,29,47
16250,145,367,-4742,805,121,-994,-260,77,29,47
16260,146,-332,-3631,196,499,-1161,-209,76,38,50
16270,147,-474,-3151,-285,799,-1168,-186,76,38,50
16280,148,34,-1811,-768,1336,-1047,-151,73,33,49
16290,149,408,-1316,313,1464,-607,-73,73,33,49
16300,150,906,-184,557,1307,-387,116,75,25,49
16310,151,1173,528,666,1210,-585,419,75,25,49
16320,152,937,1416,1448,817,-802,690,67,33,41
16330,153,285,1954,2274,223,-930,902,67,33,41
16340,154,-287,2604,2467,-428,-826,1013,77,29,41
16350,155,-668,3361,2175,-922,-305,1048,77,29,41
16360,156,-844,4022,1171,-1144,638,1013,75,29,33
16370,157,-677,3695,54,-684,1369,1041,75,29,33
16380,158,838,3109,-672,57,1304,1035,76,30,38
16390,159,953,2505,-225,405,879,1003,76,30,38
16400,160,-213,2029,201,198,648,890,76,28,42
16410,161,-589,1440,213,-335,582,748,76,28,42
16420,162,405,997,1887,-812,817,638,81,29,43
16430,163,2250,1411,5997,-920,1998,314,81,29,43
16440,164,-1331,64,18615,-3004,-1414,-385,86,24,42
16450,165,-8213,1601,4849,-7282,-2004,-778,86,24,42
16460,166,-6911,-12125,-7261,-4040,-3141,-2202,80,26,46
16470,167,-7302,-20316,1050,702,-1190,-2899,80,26,46
16480,168,4662,-21228,7110,2185,-1167,-1873,75,39,57
16490,169,6033,-12317,5414,-493,796,-422,75,39,57
16500,170,7145,-9282,1423,23,2286,-211,74,34,52
16510,171,4859,-1047,-1394,2013,840,-931,74,34,52
16520,172,2810,-4683,2319,1611,-138,-1245,68,34,50
16530,173,683,-8036,3210,177,-433,-1179,68,34,50
16540,174,-3195,-8964,526,162,512,-1074,73,41,51
16550,175,-5696,-9517,-1756,439,2318,-967,73,41,51
16560,176,-2734,-9639,-523,1077,1769,-574,69,41,49
16570,177,-1585,-8424,1851,1271,1255,14,69,41,49
16580,178,-480,-6639,2017,1638,1442,346,67,41,53
16590,179,210,-4887,1757,1481,1260,344,67,41,53
16600,180,-167,-4255,1080,511,896,237,67,37,47
16610,181,-1066,-3861,258,-267,277,246,67,37,47
16620,182,-2579,-4139,-65,-589,-195,454,65,35,47
16630,183,-3754,-4355,-297,-280,-122,541,65,35,47
16640,184,-3721,-4834,-290,280,335,472,68,38,48
16650,185,-3054,-4885,253,884,792,387,68,38,48
16660,186,-1828,-2936,729,1395,1142,176,72,30,50
16670,187,-716,-1587,639,1468,1072,-136,72,30,50
16680,188,-516,-237,130,985,687,-542,74,34,54
16690,189,-792,1246,184,347,536,-897,74,34,54
16700,190,-477,1990,1630,-553,688,-1112,75,41,51
16710,191,15,2757,1875,-1794,344,-1254,75,41,51
16720,192,1170,5199,2190,-2755,-428,-1380,70,34,48
16730,193,1542,5515,1281,-2715,-644,-1200,70,34,48
16740,194,1483,4815,228,-1044,-258,-916,68,42,58
16750,195,1034,3528,738,465,36,-650,68,42,58
16760,196,562,2781,1277,398,-7,-460,65,37,57
16770,197,258,1994,754,-39,-1,-324,65,37,57
16780,198,385,1594,22,-469,-182,-251,65,43,61
16790,199,518,1034,-468,-606,-444,-247,65,43,61
16800,200,152,479,-1126,-530,-1097,-148,66,42,54
16810,201,-3871,673,10816,-656,80,125,66,42,54
16820,202,-3764,-830,16713,-698,922,601,65,43,57
16830,203,6955,-11481,7766,-5704,3113,2522,65,43,57
16840,204,6654,-15360,-5078,27,7301,3311,61,45,63
16850,205,3495,-22623,398,-1428,155,2660,61,45,63
16860,206,-4977,-12715,4755,1121,718,1106,80,44,70
16870,207,-9583,-4936,3351,2738,-647,101,80,44,70
16880,208,-7239,-5536,3040,1714,-450,-138,77,33,77
16890,209,-4430,-5123,2859,-697,-250,742,77,33,77
16900,210,-2186,-7878,1726,-1693,502,1101,80,36,66
16910,211,1503,-7809,-1433,-98,-1262,1075,80,36,66
16920,212,-808,-9625,2038,317,-989,818,80,30,72
16930,213,-179,-10395,-250,1205,-625,548,80,30,72
16940,214,-1378,-9670,-218,1453,-1111,39,82,38,70
16950,215,-2774,-7602,-16,1925,-1638,-316,82,38,70
16960,216,-2355,-6895,894,1618,-1500,-577,83,33,63
16970,217,-1474,-7209,-30,1408,-1390,-648,83,33,63
16980,218,-623,-6834,179,549,-1269,-614,81,33,57
16990,219,250,-5845,229,-218,-1104,-569,81,33,57
17000,220,1042,-5009,1211,-714,-886,-492,80,30,52
17010,221,1029,-5621,1612,-492,-1064,-276,80,30,52
17020,222,528,-5772,1374,135,-989,-79,78,38,50
17030,223,639,-4598,386,747,-719,-40,78,38,50
17040,224,1224,-3122,-218,1214,-695,-78,76,30,54
17050,225,932,-2084,187,1147,-804,-105,76,30,54
17060,226,878,-912,307,860,-700,-38,77,35,49
17070,227,975,-396,460,627,-715,125,77,35,49
17080,228,1109,3,910,915,-782,368,73,31,47
17090,229,393,549,1631,929,-1061,621,73,31,47
17100,230,-177,907,2111,875,-1193,824,73,29,41
17110,231,-571,1669,2389,444,-835,990,73,29,41
17120,232,-1416,2229,2152,-140,-434,1058,70,28,36
17130,233,-1648,2837,1356,-815,480,983,70,28,36
17140,234,-757,3165,143,-917,1022,913,76,32,36
17150,235,649,2932,-153,-603,1061,869,76,32,36
17160,236,1178,2317,-224,-181,708,859,76,26,38
17170,237,548,1801,48,46,486,843,76,26,38
17180,238,249,1439,229,14,347,803,82,26,46
17190,239,-76,1032,530,-392,153,707,82,26,46
17200,240,830,668,5964,-1210,448,616,83,23,41
17210,241,2107,-215,4466,-364,1112,211,83,23,41
17220,242,-3223,98,15257,-2823,-2287,-532,86,20,42
17230,243,-9175,82,1900,-6204,-2170,-1072,86,20,42
17240,244,-7578,-9437,-6435,-3241,-2693,-2148,86,22,50
17250,245,-4594,-15003,2570,258,-46,-2775,86,22,50
17260,246,4013,-14272,4374,2225,-667,-2089,83,33,53
17270,247,6210,-12449,4829,-670,1040,-385,83,33,53
17280,248,4997,-9837,2364,-529,1914,40,75,33,49
17290,249,5239,-4444,-661,1264,1388,-656,75,33,49
17300,250,3173,-6422,2372,1452,813,-996,74,38,54
17310,251,1764,-8041,1857,950,598,-1072,74,38,54
17320,252,-2223,-8511,1531,843,1264,-1107,72,36,50
17330,253,-4158,-8971,-1986,379,1424,-970,72,36,50
17340,254,-3923,-10881,-149,-80,798,-615,69,39,53
17350,255,-1284,-9981,-10,611,1098,-109,69,39,53
17360,0,-680,-7497,1216,1321,501,333,67,37,53
17370,1,-1102,-5329,1341,1591,956,377,67,37,53
17380,2,-851,-4911,1095,1111,1261,349,70,38,52
17390,3,-1353,-4564,787,375,963,339,70,38,52
17400,4,-2541,-5105,410,-43,645,355,75,33,47
17410,5,-3485,-5547,-36,65,464,333,75,33,47
17420,6,-3729,-5255,193,549,441,226,76,32,48
17430,7,-3067,-4006,840,769,568,140,76,32,48
17440,8,-2428,-2682,1395,652,383,86,77,31,51
17450,9,-1901,-1998,1242,447,417,-52,77,31,51
17460,10,-875,-1114,907,537,610,-335,77,35,51
17470,11,-669,408,956,460,295,-703,77,35,51
17480,12,-938,1789,1718,-236,235,-1023,78,36,48
17490,13,-460,2284,1280,-1011,530,-1266,78,36,48
17500,14,409,3330,1324,-1670,626,-1413,75,29,49
17510,15,1334,4450,825,-1923,318,-1449,75,29,49
17520,16,1880,4499,96,-1522,15,-1328,75,37,55
17530,17,2247,3679,-70,-584,33,-1081,75,37,55
17540,18,2312,2966,425,70,313,-812,63,45,57
17550,19,1670,2475,838,-108,175,-633,63,45,57
17560,20,992,1920,732,64,-126,-453,71,43,59
17570,21,460,1311,639,251,-570,-294,71,43,59
17580,22,-89,695,118,182,-608,-210,67,47,57
17590,23,-1772,13,8604,-763,-1464,-6,67,47,57
17600,24,-2641,-463,6917,653,304,48,64,42,58
17610,25,-3626,-1600,8403,-951,266,899,64,42,58
17620,26,9301,-9402,4669,-5923,3924,2243,64,38,58
17630,27,5551,-13420,-5028,-1185,5980,2725,64,38,58
17640,28,42,-18440,576,-1839,1284,2589,72,42,68
17650,29,-6052,-10388,6749,-567,-445,1348,72,42,68
17660,30,-8508,-10046,1647,2077,255,0,73,41,73
17670,31,-7207,-6260,2820,2414,-1100,-87,73,41,73
17680,32,-5481,-3868,2829,136,-792,740,79,35,71
17690,33,-2591,-4445,87,-1429,223,853,79,35,71
17700,34,-495,-8672,-93,-849,-59,481,76,32,70
17710,35,908,-10246,1178,-19,-595,324,76,32,70
17720,36,618,-9440,1143,758,-873,140,80,36,70
17730,37,-790,-9456,336,1157,-907,-195,80,36,70
17740,38,-1666,-7722,-75,1784,-1175,-498,79,39,71
17750,39,-1534,-6277,807,1779,-1416,-626,79,39,71
17760,40,-850,-6359,803,1061,-1207,-601,75,35,61
17770,41,-323,-6604,439,91,-969,-479,75,35,61
17780,42,5,-6313,563,-606,-761,-428,78,40,64
17790,43,140,-5648,789,-720,-827,-405,78,40,64
17800,44,-20,-5291,599,-468,-937,-301,74,36,62
17810,45,-290,-4901,299,40,-1106,-180,74,36,62
17820,46,-42,-4632,-167,522,-1070,-91,74,36,60
17830,47,573,-4201,-443,1058,-932,-53,74,36,60
17840,48,668,-3745,139,1329,-798,-36,76,38,58
17850,49,1135,-2550,180,1445,-547,32,76,38,58
17860,50,913,-1520,1132,1337,-595,195,76,30,52
17870,51,692,-627,1370,1130,-777,401,76,30,52
17880,52,570,184,1778,972,-815,621,71,33,51
17890,53,210,1015,2138,606,-1184,817,71,33,51
17900,54,-38,2192,2204,-41,-1163,964,71,35,49
17910,55,-691,3461,1433,-659,-951,1036,71,35,49
17920,56,-1267,4339,1115,-1033,-319,993,76,30,46
17930,57,-897,4169,593,-647,452,908,76,30,46
17940,58,433,3727,405,136,804,794,75,29,47
17950,59,832,2710,-130,572,564,737,75,29,47
17960,60,0,1751,-100,628,394,688,76,28,44
17970,61,-93,1281,146,379,440,637,76,28,44
17980,62,679,849,1025,-26,614,561,79,25,43
17990,63,2579,1428,8751,-902,1957,412,79,25,43
18000,64,936,104,13561,-760,-717,-98,84,30,42
18010,65,-3971,404,6457,-5177,-2403,-711,84,30,42
18020,66,-8406,-1658,-959,-5096,-1359,-1002,84,28,44
18030,67,-7133,-13333,-5136,-2853,-2811,-2482,84,28,44
18040,68,-2178,-19782,2914,2254,-961,-2707,81,35,53
18050,69,7178,-18568,7443,1146,-612,-1046,81,35,53
18060,70,5398,-9368,4694,-266,1586,-47,71,35,51
18070,71,4943,-6013,862,-117,1873,-304,71,35,51
18080,72,2955,-4587,569,1573,1136,-898,71,37,49
18090,73,2362,-7008,2650,1328,912,-1004,71,37,49
18100,74,570,-7666,1853,295,361,-829,72,38,56
18110,75,-3202,-8879,146,-101,1413,-680,72,38,56
18120,76,-4069,-9140,-537,213,1987,-549,65,39,49
18130,77,-1908,-9363,1109,325,1793,-255,65,39,49
18140,78,-303,-8314,868,383,1318,110,67,39,53
18150,79,170,-7109,344,925,1226,240,67,39,53
18160,80,330,-5562,582,1274,1520,116,67,39,51
18170,81,423,-4577,554,752,1630,-35,67,39,51
18180,82,-154,-4609,260,79,1394,-127,70,42,58
18190,83,-1263,-4729,5,-135,952,-120,70,42,58
18200,84,-2627,-5069,109,1,584,-128,67,41,55
18210,85,-3786,-5296,64,588,404,-95,67,41,55
18220,86,-4130,-4739,447,1163,178,-46,77,43,55
18230,87,-3460,-3714,951,1449,551,104,77,43,55
18240,88,-2923,-2251,1694,1533,794,66,73,39,63
18250,89,-2133,-1503,2558,1204,674,-32,73,39,63
18260,90,-1660,-221,1601,1007,600,-348,74,38,50
18270,91,-1298,1712,1504,681,583,-670,74,38,50
18280,92,-492,2418,1399,-538,607,-936,70,34,48
18290,93,500,3683,1636,-2036,984,-1106,70,34,48
18300,94,1865,4818,901,-3291,537,-1113,72,42,50
18310,95,2210,4764,-248,-2251,10,-979,72,42,50
18320,96,1766,4083,443,-454,-100,-830,64,46,62
18330,97,1169,3548,841,169,217,-684,64,46,62
18340,98,705,2789,835,-82,643,-516,65,43,59
18350,99,621,2296,106,-394,816,-319,65,43,59
18360,100,999,1703,-687,-305,513,-143,65,47,61
18370,101,944,969,-892,67,101,-29,65,47,61
18380,102,836,291,-1117,523,-556,26,69,45,61
18390,103,-949,-725,1419,-106,-1799,172,69,45,61
18400,104,-4920,-593,7949,-285,353,200,63,43,63
18410,105,-5699,-1415,12310,-1138,-132,999,63,43,63
18420,106,3042,-11528,-386,-5460,3976,2508,66,48,66
18430,107,10656,-18953,-656,-2638,5822,2935,66,48,66
18440,108,-2042,-15409,1812,-787,-435,2202,69,45,73
18450,109,-9672,-8207,2701,709,-1754,624,69,45,73
18460,110,-8083,-6849,3947,2565,-1053,-253,79,39,77
18470,111,-5364,-4064,3302,1805,-187,-150,79,39,77
18480,112,-3789,-6585,1645,-1118,-162,849,78,40,74
18490,113,-1065,-6669,-876,-700,-1025,1078,78,40,74
18500,114,-167,-10508,2333,-472,-942,928,80,34,74
18510,115,272,-9953,-265,275,-1260,835,80,34,74
18520,116,-832,-9374,1036,945,-1476,599,76,36,74
18530,117,-1830,-8406,323,1130,-1614,145,76,36,74
18540,118,-1565,-7451,383,1653,-1575,-218,76,36,62
18550,119,-494,-6927,656,1843,-1526,-444,76,36,62
18560,120,380,-6397,505,1341,-1643,-462,84,32,60
18570,121,938,-6043,1024,-136,-1543,-377,84,32,60
18580,122,1389,-5792,1089,-1250,-1105,-289,83,39,59
18590,123,1837,-5926,1254,-1051,-605,-189,83,39,59
18600,124,951,-6233,941,-187,-800,7,75,37,57
18610,125,-36,-5213,891,829,-926,103,75,37,57
18620,126,-135,-4183,284,1126,-985,144,74,40,52
18630,127,78,-2978,-78,1118,-1102,158,74,40,52
18640,128,-389,-2121,62,843,-922,141,74,34,50
18650,129,-324,-1472,-51,706,-604,132,74,34,50
18660,130,-101,-1055,37,778,-719,169,76,34,50
18670,131,-59,-539,397,737,-700,299,76,34,50
18680,132,124,-57,881,671,-671,475,74,32,50
18690,133,-100,663,1580,476,-822,650,74,32,50
18700,134,-329,1044,2378,124,-631,767,76,36,44
18710,135,-642,1438,2271,-262,-298,795,76,36,44
18720,136,-974,2208,1530,-490,48,751,76,30,40
18730,137,-762,2891,752,-670,561,729,76,30,40
18740,138,465,2816,-48,-502,731,782,75,31,41
18750,139,1617,2348,-347,-325,562,880,75,31,41
18760,140,1533,1882,-399,-13,238,939,78,28,44
18770,141,580,1556,-50,214,-65,879,78,28,44
18780,142,4,1062,-13,108,33,690,86,28,46
18790,143,417,692,1848,-224,367,473,86,28,46
18800,144,2278,1118,6754,-670,1751,155,85,29,47
18810,145,213,-558,13962,-481,-650,-349,85,29,47
18820,146,-5714,554,8008,-5366,-2468,-1015,89,29,47
18830,147,-8801,-1830,-5094,-4821,-631,-1137,89,29,47
18840,148,-8548,-14257,-1659,-1738,-2458,-2415,84,34,54
18850,149,-624,-18731,-594,1707,-1411,-2657,84,34,54
18860,150,5245,-14930,10270,1582,-1192,-1065,77,37,53
18870,151,5203,-10386,4410,-104,595,190,77,37,53
18880,152,4893,-6792,617,314,550,-10,75,33,47
18890,153,3021,-4636,644,1061,252,-668,75,33,47
18900,154,1752,-7770,1963,697,751,-873,74,36,56
18910,155,-280,-8607,2031,898,707,-869,74,36,56
18920,156,-3468,-8849,1016,682,1592,-781,70,38,58
18930,157,-2877,-8858,-65,489,1386,-623,70,38,58
18940,158,-1313,-9080,500,527,894,-324,67,41,55
18950,159,-783,-7738,804,823,686,-28,67,41,55
18960,160,-543,-6365,743,1087,777,11,74,36,52
18970,161,-410,-5175,737,1103,903,-35,74,36,52
18980,162,-259,-4454,843,655,1007,-73,71,39,55
18990,163,-610,-4103,495,348,922,-98,71,39,55
19000,164,-1445,-4515,466,478,494,-83,74,44,52
19010,165,-2198,-4979,509,535,-95,-78,74,44,52
19020,166,-2831,-4906,478,569,-323,-81,74,40,54
19030,167,-2498,-4348,383,693,-9,-52,74,40,54
19040,168,-2107,-3154,744,683,-212,-34,76,34,50
19050,169,-1933,-2402,898,1007,-348,-156,76,34,50
19060,170,-1899,-1661,1481,1199,-227,-329,75,39,45
19070,171,-1366,206,1426,1298,154,-654,75,39,45
19080,172,-992,1640,1375,988,163,-933,71,37,43
19090,173,-577,2363,1743,-52,325,-1161,71,37,43
19100,174,44,2993,1739,-1324,708,-1291,76,36,40
19110,175,1056,4254,1115,-2324,817,-1353,76,36,40
19120,176,1593,4597,14,-2398,216,-1264,67,47,49
19130,177,1631,4042,-351,-1616,-40,-1006,67,47,49
19140,178,1218,3135,0,-366,109,-734,65,47,51
19150,179,1075,2624,696,253,245,-513,65,47,51
19160,180,913,2302,722,216,278,-346,64,44,60
19170,181,998,1957,-39,86,152,-223,64,44,60
19180,182,854,1525,-590,92,-173,-152,64,46,54
19190,183,-784,546,4231,-503,-1404,-72,64,46,54
19200,184,-3017,-702,7452,33,668,-170,66,42,54
19210,185,-4840,-410,10621,-959,277,578,66,42,54
19220,186,9068,-9519,2879,-5716,4335,2385,65,45,51
19230,187,9261,-15277,-2258,-1686,5749,2548,65,45,51
19240,188,-1472,-18935,4137,-2620,527,2217,69,49,65
19250,189,-8885,-13698,7150,-454,170,833,69,49,65
19260,190,-9860,-7322,3061,2354,-51,-5,74,42,74
19270,191,-7575,-5829,3902,2227,-184,47,74,42,74
19280,192,-4866,-4735,2921,-40,134,676,72,42,74
19290,193,-1053,-6046,824,-1097,439,921,72,42,74
19300,194,572,-9273,2167,-390,-632,754,75,39,69
19310,195,508,-10503,1542,-237,-738,614,75,39,69
19320,196,-855,-10088,20,641,-921,315,80,38,70
19330,197,-3048,-8645,224,1045,-1195,-64,80,38,70
19340,198,-3477,-7681,452,1355,-1621,-291,78,38,60
19350,199,-2395,-7044,733,1510,-1596,-414,78,38,60
19360,200,-1214,-6497,981,1162,-1599,-369,78,38,68
19370,201,-636,-6027,907,300,-1648,-271,78,38,68
19380,202,-122,-5739,1360,-612,-1441,-210,78,36,56
19390,203,559,-5314,1141,-982,-1092,-170,78,36,56
19400,204,680,-4798,846,-657,-1112,-81,79,37,59
19410,205,543,-4645,424,-97,-1167,59,79,37,59
19420,206,856,-4383,-20,352,-990,156,75,39,51
19430,207,1245,-3741,-218,600,-894,144,75,39,51
19440,208,1229,-2776,-211,798,-736,86,71,35,53
19450,209,1253,-1541,304,781,-606,102,71,35,53
19460,210,1187,-932,782,492,-799,208,79,37,51
19470,211,867,-628,884,361,-772,381,79,37,51
19480,212,494,-435,917,494,-912,633,75,37,49
19490,213,15,-24,1423,711,-956,878,75,37,49
19500,214,-264,833,2006,788,-779,1046,78,34,46
19510,215,-683,1779,2577,195,-349,1049,78,34,46
19520,216,-1087,2908,2291,-499,17,899,76,36,46
19530,217,-1222,3710,899,-956,291,757,76,36,46
19540,218,-130,3554,-106,-979,514,831,75,35,45
19550,219,951,3037,-305,-434,534,906,75,35,45
19560,220,900,2363,-465,364,322,892,76,32,48
19570,221,418,1807,129,584,279,843,76,32,48
19580,222,4,1312,206,294,429,741,88,28,48
19590,223,350,870,-82,-101,844,639,88,28,48
19600,224,1890,797,3277,-1056,1098,561,88,30,46
19610,225,3213,263,6337,-419,2055,157,88,30,46
19620,226,353,-611,14409,-1927,-1032,-535,88,28,52
19630,227,-4965,-301,8312,-7268,-2845,-1176,88,28,52
19640,228,-7225,-7817,-9904,-4006,-1782,-1896,91,31,57
19650,229,-8004,-23888,1313,1400,-472,-3163,91,31,57
19660,230,2534,-15092,5041,2759,-796,-1976,79,37,63
19670,231,4370,-10073,5775,-345,1588,-483,79,37,63
19680,232,4818,-9669,1405,-828,1569,-292,76,40,56
19690,233,3001,-4854,-1078,1211,1010,-1122,76,40,56
19700,234,1737,-6643,2729,1541,1631,-1248,80,38,56
19710,235,66,-7332,2087,616,770,-979,80,38,56
19720,236,-3148,-7766,-669,474,653,-724,73,41,59
19730,237,-4728,-9825,-939,143,963,-373,73,41,59
19740,238,-3028,-11335,-55,784,951,27,76,42,58
19750,239,-1459,-8586,465,1094,269,417,76,42,58
19760,240,-717,-6629,908,905,181,476,76,44,60
19770,241,-725,-5495,539,782,559,346,76,44,60
19780,242,-198,-4786,44,671,888,193,72,46,58
19790,243,127,-4676,297,418,853,70,72,46,58
19800,244,-723,-5268,280,3,377,-76,74,32,54
19810,245,-1887,-5220,-133,100,-78,-297,74,32,54
19820,246,-2644,-5262,-246,886,-306,-566,76,40,54
19830,247,-2185,-5262,664,1659,-195,-459,76,40,54
19840,248,-2927,-3304,763,2052,-365,-381,70,36,56
19850,249,-3484,-828,2096,1997,-234,-566,70,36,56
19860,250,-1856,-404,1985,1613,-144,-781,73,41,51
19870,251,-1501,1537,2370,1137,-310,-1025,73,41,51
19880,252,-925,2414,2356,-315,-638,-1184,69,39,47
19890,253,-889,4752,857,-1737,-214,-1418,69,39,47
19900,254,830,6173,308,-3036,675,-1352,67,43,43
19910,255,1794,5471,-1088,-2684,606,-1029,67,43,43
19920,0,1747,4142,-961,-848,240,-747,69,47,51
19930,1,1472,3271,197,311,-66,-478,69,47,51
19940,2,1038,2964,816,256,125,-257,68,46,60
19950,3,1102,2537,664,-195,184,-133,68,46,60
19960,4,1296,2434,135,-440,99,-63,66,44,58
19970,5,1309,1556,-163,-262,-35,13,66,44,58
19980,6,1041,433,-193,-163,-252,131,63,45,59
19990,7,-550,-707,4581,-1137,-1783,416,63,45,59
20000,8,-2855,-2404,5513,1311,409,229,66,44,58
20010,9,-3929,-6211,18908,-4781,1932,1627,66,44,58
20020,10,12549,-9980,-9254,-3311,8268,2792,61,47,63
20030,11,8495,-20073,-1167,-2696,1638,2963,61,47,63
20040,12,-9367,-11401,2425,-385,-821,1463,74,44,74
20050,13,-8926,-9623,5090,751,248,91,74,44,74
20060,14,-8701,-5281,1721,2360,37,-635,81,37,75
20070,15,-6324,-5936,3184,835,-712,-10,81,37,75
20080,16,-2831,-6346,1511,-366,-692,749,76,38,72
20090,17,-247,-7520,216,-465,-945,776,76,38,72
20100,18,252,-10951,1871,-93,-1078,806,76,42,70
20110,19,557,-10133,-39,631,-905,715,76,42,70
20120,20,-1398,-8673,584,730,-1077,336,80,34,68
20130,21,-2812,-8126,494,722,-1286,-94,80,34,68
20140,22,-3486,-7345,48,1115,-1706,-381,80,36,68
20150,23,-2530,-6779,359,1325,-1679,-528,80,36,68
20160,24,-1271,-6666,672,873,-1392,-600,74,38,64
20170,25,-63,-5996,1078,15,-939,-599,74,38,64
20180,26,1592,-5102,909,-789,-541,-562,73,41,57
20190,27,2083,-5024,755,-1221,-405,-482,73,41,57
20200,28,1637,-5029,572,-990,-656,-369,72,36,56
20210,29,684,-4419,130,-317,-789,-218,72,36,56
20220,30,404,-3887,58,366,-855,-51,72,38,60
20230,31,431,-3151,247,649,-929,104,72,38,60
20240,32,496,-2474,282,645,-871,283,74,38,54
20250,33,391,-1900,838,556,-887,552,74,38,54
20260,34,137,-1245,1308,571,-968,859,77,37,51
20270,35,-428,-546,1529,812,-1109,1134,77,37,51
20280,36,-597,601,1761,1105,-1015,1295,75,37,53
20290,37,-815,2121,2397,859,-743,1354,75,37,53
20300,38,-936,3173,1846,328,-597,1351,77,31,45
20310,39,-1369,3817,1434,-132,-366,1242,77,31,45
20320,40,-831,3765,541,-185,190,1029,80,32,48
20330,41,972,3128,242,36,824,854,80,32,48
20340,42,1322,2477,-207,505,709,733,79,27,45
20350,43,923,2052,-218,974,672,627,79,27,45
20360,44,320,1700,90,901,821,461,81,23,41
20370,45,1023,1227,1002,532,1030,303,81,23,41
20380,46,3326,2345,9185,-148,1586,200,80,22,46
20390,47,3190,-501,11255,797,54,-259,80,22,46
20400,48,-2181,-39,7938,-3198,-2684,-806,88,16,46
20410,49,-3850,599,2612,-4826,-3067,-890,88,16,46
20420,50,-12186,-10694,-3362,-5369,-748,-1744,81,25,51
20430,51,630,-31738,7524,-394,271,-1332,81,25,51
20440,52,6724,-8747,2943,708,650,29,78,34,56
20450,53,3799,-9563,2295,-344,2053,60,78,34,56
20460,54,2298,-4522,1091,1120,1162,-914,80,34,56
20470,55,1816,-5978,2850,1420,912,-1692,80,34,56
20480,56,134,-7907,2266,351,-100,-1533,74,30,60
20490,57,-4421,-8905,-102,939,66,-1356,74,30,60
20500,58,-4374,-11628,230,102,1495,-930,77,33,57
20510,59,-1858,-8218,1588,298,1823,-534,77,33,57
20520,60,-657,-7826,1577,393,1255,-83,76,38,54
20530,61,64,-6637,760,956,1020,190,76,38,54
20540,62,-224,-5595,990,1201,1176,178,74,36,58
20550,63,-699,-5288,785,812,1201,112,74,36,58
20560,64,-1120,-4803,440,349,948,16,77,39,55
20570,65,-1406,-4323,547,71,859,-124,77,39,55
20580,66,-1724,-3985,112,-71,650,-215,77,33,59
20590,67,-1980,-3659,128,-15,627,-272,77,33,59
20600,68,-1835,-3631,460,239,799,-337,77,35,57
20610,69,-1768,-3618,787,684,885,-499,77,35,57
20620,70,-1215,-3372,1453,1244,1041,-662,74,40,56
20630,71,-1398,-2597,1834,1608,600,-828,74,40,56
20640,72,-1662,-1644,2215,1632,274,-983,77,37,55
20650,73,-1388,-561,2562,1274,30,-1155,77,37,55
20660,74,-549,1368,2424,715,10,-1310,71,37,53
20670,75,142,2814,1909,-106,-90,-1430,71,37,53
20680,76,892,3581,851,-736,-199,-1464,68,40,58
20690,77,710,254,378,-1234,-289,-1499,68,40,58
20700,78,31,4593,-1353,-328,-212,-1407,69,39,55
20710,79,-259,4435,-991,269,-2,-1097,69,39,55
20720,80,-175,4039,-529,321,148,-814,61,45,53
20730,81,1375,2371,687,-126,368,-415,61,45,53
20740,82,1315,1669,634,-336,-99,82,62,44,54
20750,83,781,1065,-271,-588,-817,434,62,44,54
20760,84,-293,851,536,-674,-1400,551,66,48,54
20770,85,-3253,2590,6953,-4088,-295,604,66,48,54
20780,86,-2468,-1707,9729,-473,47,971,58,40,54
20790,87,4017,-3358,13756,-3692,1862,1728,58,40,54
20800,88,3359,-5114,-8968,-2532,4496,2319,66,38,58
20810,89,4420,-19806,6916,-8602,2372,3443,66,38,58
20820,90,-8916,-20197,1502,-310,-694,2521,77,41,73
20830,91,-7890,-8083,2644,2501,-1077,569,77,41,73
20840,92,-8781,-4056,1823,2319,-2705,-148,72,36,80
20850,93,-6157,-3631,1418,651,-1847,304,72,36,80
20860,94,-2668,-5967,2358,-1171,-562,677,74,34,66
20870,95,1198,-7132,-2687,-701,-1198,675,74,34,66
20880,96,1847,-8573,1047,708,-1959,693,75,35,65
20890,97,1803,-9001,54,304,-1561,680,75,35,65
20900,98,1230,-9786,-183,757,-1513,491,81,39,69
20910,99,-233,-7616,495,1429,-1291,92,81,39,69
20920,100,-839,-6956,1366,1411,-1382,-247,79,35,61
20930,101,-830,-6717,782,723,-1507,-435,79,35,61
20940,102,-451,-7002,264,-295,-1164,-498,81,35,57
20950,103,512,-7030,779,-819,-596,-570,81,35,57
20960,104,1704,-7190,1263,-667,-90,-678,73,39,57
20970,105,1663,-7080,912,-69,64,-583,73,39,57
20980,106,726,-5833,376,585,-574,-384,74,38,56
20990,107,293,-4780,169,993,-705,-217,74,38,56
21000,108,635,-4101,232,917,-915,-43,75,39,59
21010,109,672,-3878,-79,741,-1060,86,75,39,59
21020,110,440,-4564,-1992,1505,-1086,131,78,38,52
21030,111,393,-3189,-35,2163,-898,363,78,38,52
21040,112,817,-1165,1425,1922,-1196,653,82,34,44
21050,113,419,31,2315,1040,-1188,822,82,34,44
21060,114,2,466,2793,-14,-884,1062,75,27,43
21070,115,-467,1924,2766,-897,-336,1078,75,27,43
21080,116,-581,3139,1900,-1525,-452,1069,76,32,38
21090,117,-568,4338,1553,-1689,-330,711,76,32,38
21100,118,-404,4873,1059,-1301,-119,325,82,34,40
21110,119,723,4299,355,-780,97,352,82,34,40
21120,120,1527,3958,-294,-229,62,576,76,28,40
21130,121,1360,3295,-354,216,20,535,76,28,40
21140,122,649,2334,241,522,277,521,79,29,47
21150,123,668,1457,444,770,743,412,79,29,47
21160,124,2720,1413,8735,527,996,565,82,30,44
21170,125,2211,2063,8608,1672,972,-70,82,30,44
21180,126,-1906,891,9469,-1223,-1281,-671,83,27,41
21190,127,-2305,-366,2848,-4649,-708,-744,83,27,41
21200,128,-6825,-5101,-3311,-3897,-1079,-1430,80,26,40
21210,129,-4568,-17958,-368,-3047,-2715,-2598,80,26,40
21220,130,-2199,-20937,5108,2093,-859,-2915,79,31,51
21230,131,3090,-17429,10084,-25,687,-1287,79,31,51
21240,132,4730,-12022,1241,762,1856,-161,70,36,50
21250,133,5343,-2490,-86,1649,1228,-887,70,36,50
21260,134,4328,-5214,2637,1164,1091,-999,68,40,48
21270,135,1472,-8022,715,584,420,-860,68,40,48
21280,136,-2001,-9376,-87,249,710,-816,68,32,44
21290,137,-3486,-8834,-407,559,2085,-816,68,32,44
21300,138,-2322,-8192,543,819,1685,-595,64,40,48
21310,139,-942,-7922,738,874,910,-206,64,40,48
21320,140,-429,-7494,735,871,703,168,65,35,47
21330,141,336,-6177,544,1042,1143,281,65,35,47
21340,142,729,-5044,443,617,1297,239,69,37,51
21350,143,683,-4708,121,-82,1134,153,69,37,51
21360,144,-331,-4476,-71,-498,588,15,73,43,51
21370,145,-1738,-4285,-15,-515,69,-82,73,43,51
21380,146,-2976,-4783,-152,-252,-79,-127,70,38,50
21390,147,-3521,-4972,-276,251,-191,-166,70,38,50
21400,148,-3897,-4331,401,1157,397,-266,73,41,53
21410,149,-3109,-4091,1086,1553,489,-360,73,41,53
21420,150,-2655,-3634,496,1238,1045,-504,69,37,51
21430,151,-1271,-1268,1601,1453,181,-625,69,37,51
21440,152,-457,1018,2771,947,-590,-787,69,39,49
21450,153,-307,2530,3233,-422,-902,-859,69,39,49
21460,154,120,3957,2165,-1829,-886,-1108,69,39,45
21470,155,767,5897,260,-2510,-162,-1274,69,39,45
21480,156,1704,6729,-1041,-2255,459,-1168,64,46,44
21490,157,1623,5471,-1306,-737,-120,-749,64,46,44
21500,158,841,6253,228,-103,6,-456,64,42,48
21510,159,1070,4552,844,-422,427,-339,64,42,48
21520,160,1445,3096,662,-567,258,-213,58,46,50
21530,161,980,2598,-219,123,-178,-29,58,46,50
21540,162,686,1956,-673,629,-409,78,63,43,51
21550,163,621,835,-947,759,-354,297,63,43,51
21560,164,-2200,-1732,14993,-2072,56,645,64,46,48
21570,165,-1429,-2733,30000,-1680,1306,1298,64,46,48
21580,166,6574,-4167,-826,-3404,2363,1954,63,41,49
21590,167,10071,-21331,-2140,-1263,5360,3357,63,41,49
21600,168,-2377,-16201,458,-3496,1501,2976,70,42,58
21610,169,-10117,-12271,6610,801,2867,972,70,42,58
21620,170,-9720,-4148,2587,2125,1568,-471,73,35,63
21630,171,-8353,-4667,1654,1805,-1612,-479,73,35,63
21640,172,-5393,-3877,1859,473,-1435,75,77,41,69
21650,173,-1974,-5149,4356,-1418,530,370,77,41,69
21660,174,2228,-9632,-262,-1232,791,493,75,37,65
21670,175,2831,-8493,693,911,-994,731,75,37,65
21680,176,1091,-8800,363,478,-1185,589,76,38,68
21690,177,-204,-9858,-11,679,-750,284,76,38,68
21700,178,-1054,-7790,936,981,-630,4,80,38,64
21710,179,-1027,-7493,704,943,-373,-274,80,38,64
21720,180,-1142,-7443,-78,1047,-508,-415,74,38,58
21730,181,-1013,-6739,157,1217,-662,-503,74,38,58
21740,182,-1056,-6452,360,759,-728,-602,77,39,57
21750,183,-722,-6247,465,-146,-514,-582,77,39,57
21760,184,-368,-5847,633,-1051,-216,-479,76,40,58
21770,185,314,-5736,200,-907,161,-342,76,40,58
21780,186,891,-5146,475,-67,-71,-249,73,37,59
21790,187,827,-4420,470,209,-483,-191,73,37,59
21800,188,989,-3332,-376,186,-974,-132,70,40,56
21810,189,603,-2968,-460,138,-1187,-70,70,40,56
21820,190,121,-2334,-95,157,-1274,65,74,38,54
21830,191,-1089,-8798,1776,171,-1003,237,74,38,54
21840,192,-926,-1646,1104,1864,-956,577,69,35,51
21850,193,-951,-682,1937,1936,-1020,902,69,35,51
21860,194,-1144,579,3034,1495,-510,1044,76,42,50
21870,195,-954,1839,3356,537,-15,1048,76,42,50
21880,196,-502,2908,2882,-463,107,1105,71,31,43
21890,197,75,3948,1409,-887,201,914,71,31,43
21900,198,614,4194,538,-843,55,780,77,29,43
21910,199,1874,3893,127,-526,63,834,77,29,43
21920,200,2056,3670,-174,-229,145,864,80,30,42
21930,201,1899,3011,-103,-119,93,825,80,30,42
21940,202,1431,2462,-222,196,-68,735,84,26,48
21950,203,909,1753,-133,433,107,567,84,26,48
21960,204,1558,1031,3386,-4,539,496,80,22,48
21970,205,2791,1274,3192,244,941,171,80,22,48
21980,206,-44,-1336,11506,-298,-1124,-326,78,22,44
21990,207,-2726,-2258,8423,-4619,-1268,-1314,78,22,44
22000,208,-7822,-3294,-5911,-5166,3,-1849,87,25,45
22010,209,-7796,-18510,1637,-3400,-3170,-2996,87,25,45
22020,210,-3773,-20451,2852,2021,-1149,-2972,75,31,57
22030,211,5958,-17045,8687,1400,-596,-1448,75,31,57
22040,212,8207,-10448,3221,-383,3200,-6,72,34,50
22050,213,5019,-4214,-1152,389,1431,-382,72,34,50
22060,214,2675,-4954,2165,1596,1359,-762,69,37,55
22070,215,678,-7874,2024,855,539,-753,69,37,55
22080,216,-3200,-9575,-332,23,213,-702,69,43,53
22090,217,-5059,-8964,-1788,409,1578,-779,69,43,53
22100,218,-3306,-8373,-527,1119,995,-645,65,41,57
22110,219,-1758,-7958,813,1137,371,-268,65,41,57
22120,220,-698,-7120,1127,847,278,138,64,40,54
22130,221,-58,-6217,674,779,471,249,64,40,54
22140,222,485,-5399,421,512,664,275,63,35,57
22150,223,348,-4841,-99,90,451,312,63,35,57
22160,224,-349,-4826,99,-166,238,319,66,40,54
22170,225,-1118,-4797,169,13,257,190,66,40,54
22180,226,-2057,-5327,139,405,177,15,69,43,49
22190,227,-2575,-4909,414,991,85,-96,69,43,49
22200,228,-2136,-4067,-15,1653,110,-126,67,41,49
22210,229,-2050,-3808,1415,1755,164,-165,67,41,49
22220,230,-1840,-2446,961,1322,398,-215,66,42,48
22230,231,-1066,-1213,1017,1016,10,-238,66,42,48
22240,232,-572,871,1155,757,-420,-320,66,34,44
22250,233,-319,2167,1773,-137,-747,-652,66,34,44
22260,234,-551,3829,1962,-1745,-202,-993,67,43,45
22270,235,227,5053,1716,-2752,281,-1247,67,43,45
22280,236,1192,5855,1139,-3004,455,-1255,62,40,44
22290,237,1503,5554,-285,-1801,128,-1034,62,40,44
22300,238,756,6122,-11,-763,-147,-748,62,42,50
22310,239,663,4653,605,-517,-142,-433,62,42,50
22320,240,904,3268,523,-542,-183,-299,57,47,53
22330,241,1129,2139,140,-62,-229,-282,57,47,53
22340,242,1102,1402,91,380,-300,-291,59,45,51
22350,243,1101,544,200,546,-326,-148,59,45,51
22360,244,126,-917,5655,147,-2051,138,55,47,49
22370,245,-1713,688,5258,2600,685,99,55,47,49
22380,246,6747,-3301,10028,-2861,-1287,1732,56,46,50
22390,247,4925,-8866,-2459,-848,7216,2984,56,46,50
22400,248,10254,-32767,-2055,-7697,4447,3735,63,41,55
22410,249,-4683,-16925,1448,1728,1418,2539,63,41,55
22420,250,-12284,-5556,10282,1164,2390,64,73,43,71
22430,251,-11515,-6494,535,2035,-609,-651,73,43,71
22440,252,-7516,-3993,-1023,1224,-1891,-127,77,39,67
22450,253,-5144,-2571,1902,935,-893,401,77,39,67
22460,254,-1916,-7508,4235,-1649,632,403,73,39,65
22470,255,2247,-7761,-716,-253,-1048,532,73,39,65
22480,0,1523,-10210,1405,367,-926,606,71,41,65
22490,1,1660,-10910,-214,1006,-689,544,71,41,65
22500,2,356,-9007,615,1074,-968,179,70,40,60
22510,3,-397,-7398,683,1329,-763,-158,70,40,60
22520,4,-420,-6747,461,1349,-927,-308,77,39,63
22530,5,-446,-6446,335,1065,-992,-352,77,39,63
22540,6,-221,-5719,371,105,-800,-425,72,36,56
22550,7,244,-5015,20,-1084,-349,-504,72,36,56
22560,8,136,-5738,398,-1876,-307,-430,71,33,47
22570,9,91,-6333,614,-1261,-17,-240,71,33,47
22580,10,-16,-5852,998,-326,23,-110,69,37,59
22590,11,224,-4647,-22,256,-455,-21,69,37,59
22600,12,116,-2988,-1150,985,-808,13,68,34,58
22610,13,63,-2187,145,1294,-609,60,68,34,58
22620,14,209,-685,-962,1852,-1092,108,73,35,55
22630,15,-1602,-10033,3834,1052,-665,262,73,35,55
22640,16,-221,-539,794,1772,-832,540,68,34,50
22650,17,-5,-99,2068,1310,-528,664,68,34,50
22660,18,84,597,3257,515,-329,1062,75,37,47
22670,19,-563,1941,4181,-551,-56,962,75,37,47
22680,20,-726,2654,3746,-1638,208,792,73,37,39
22690,21,-1181,3918,2606,-1982,568,676,73,37,39
22700,22,669,4433,368,-1448,655,572,77,33,45
22710,23,1230,4344,-899,-360,509,701,77,33,45
22720,24,2760,4211,-987,272,237,904,71,35,51
22730,25,1980,3058,-466,348,-5,818,71,35,51
22740,26,956,2312,-522,869,164,664,76,32,46
22750,27,682,1430,-37,1090,231,519,76,32,46
22760,28,651,497,1038,615,372,394,82,32,54
22770,29,1559,2139,7299,649,1077,580,82,32,54
22780,30,1371,-4948,16178,-1215,-802,-550,82,28,46
22790,31,-7918,1175,14294,-8652,-812,-1514,82,28,46
22800,32,-5489,-12036,-7139,-4116,-4766,-3048,82,28,52
22810,33,-9687,-15052,-1401,766,-2392,-3794,82,28,52
22820,34,2500,-20863,2399,1558,-1030,-2277,75,39,59
22830,35,11920,-14525,17322,-875,1459,206,75,39,59
22840,36,7710,-10109,698,-522,1324,927,69,41,49
22850,37,4657,-2990,-1958,1363,1454,362,69,41,49
22860,38,2195,-3759,2431,1505,1861,-263,69,41,49
22870,39,1088,-7507,1998,32,629,-588,69,41,49
22880,40,-3067,-10780,342,-503,637,-884,71,45,55
22890,41,-5024,-10659,-1357,287,2230,-1076,71,45,55
22900,42,-3455,-8446,-1565,1043,1489,-1001,62,40,58
22910,43,-2369,-7973,359,934,819,-677,62,40,58
22920,44,-965,-6891,1017,756,849,-277,72,38,56
22930,45,-314,-6116,610,691,884,-4,72,38,56
22940,46,44,-5536,324,539,1025,54,66,42,58
22950,47,-76,-5028,89,-3,694,30,66,42,58
22960,48,-1000,-4669,15,-434,143,69,66,42,56
22970,49,-1895,-4736,19,-410,-205,89,66,42,56
22980,50,-2690,-4962,256,131,-215,49,65,41,59
22990,51,-2807,-4784,218,791,-275,28,65,41,59
23000,52,-2429,-3975,82,1375,-257,50,62,44,60
23010,53,-1259,-3062,1248,1506,-192,69,62,44,60
23020,54,-1139,-1633,1451,1129,-544,-21,68,40,56
23030,55,-1046,-422,1546,803,-783,-206,68,40,56
23040,56,-1242,905,684,847,-536,-431,67,39,53
23050,57,-1364,1106,1570,611,-25,-732,67,39,53
23060,58,-142,3469,2177,-472,634,-1014,63,41,47
23070,59,757,4593,2641,-1732,902,-1309,63,41,47
23080,60,1994,5065,1540,-2295,703,-1469,69,43,49
23090,61,2890,4938,-94,-1676,182,-1324,69,43,49
23100,62,1989,5577,157,-684,-103,-930,61,49,61
23110,63,1264,4311,600,-539,-161,-597,61,49,61
23120,64,954,3061,143,-297,-249,-360,59,47,57
23130,65,838,2215,197,257,-239,-247,59,47,57
23140,66,723,1564,145,512,-246,-173,56,44,54
23150,67,437,1023,28,511,-164,-87,56,44,54
23160,68,-1493,-948,15944,-816,-1373,246,56,48,58
23170,69,-2445,-2092,9150,2255,978,-20,56,48,58
23180,70,-580,-1948,14854,-4121,1331,1496,55,47,53
23190,71,8535,-6599,-4814,-2894,7996,2807,55,47,53
23200,72,11246,-29346,-4018,-6105,4785,3841,53,47,63
23210,73,-5521,-15103,2150,1231,-699,2656,53,47,63
23220,74,-12241,-7017,5588,1395,1360,243,69,47,75
23230,75,-10938,-5517,992,2515,-1046,-638,69,47,75
23240,76,-7130,-3785,10,943,-1593,-79,69,41,79
23250,77,-3853,-4443,2052,-186,-426,491,69,41,79
23260,78,-879,-8361,1426,-1841,613,443,68,40,70
23270,79,1681,-8973,899,397,-686,371,68,40,70
23280,80,2186,-11266,-203,756,-619,540,73,41,67
23290,81,1071,-11349,-116,909,-744,560,73,41,67
23300,82,-475,-7609,755,1244,-753,250,77,39,71
23310,83,-598,-6738,780,1260,-759,-78,77,39,71
23320,84,-326,-6920,236,1138,-806,-289,74,40,70
23330,85,-198,-6549,-113,551,-855,-373,74,40,70
23340,86,-225,-6059,-437,-612,-782,-413,73,39,65
23350,87,-278,-5715,-502,-1214,-750,-408,73,39,65
23360,88,-278,-5841,589,-1331,-525,-258,69,41,65
23370,89,-113,-5941,590,-775,-477,-53,69,41,65
23380,90,-357,-5551,-3,287,-726,73,65,43,67
23390,91,-372,-4134,-472,1195,-1049,135,65,43,67
23400,92,340,-3014,-609,1600,-1018,188,69,39,63
23410,93,503,-1739,-575,1491,-978,259,69,39,63
23420,94,513,-1214,303,1299,-826,429,71,43,55
23430,95,759,-891,674,1186,-697,613,71,43,55
23440,96,227,-1494,2397,1327,-895,829,74,36,52
23450,97,490,900,2360,1299,-414,1053,74,36,52
23460,98,496,1540,3851,304,-597,1142,74,36,56
23470,99,-80,2493,3827,-849,-405,1123,74,36,56
23480,100,-499,3344,2721,-1606,-92,937,71,35,49
23490,101,-516,3657,549,-1209,-88,759,71,35,49
23500,102,-63,4440,5,192,281,617,75,31,43
23510,103,1443,4146,-825,1392,481,588,75,31,43
23520,104,2208,3175,204,2169,265,519,76,30,50
23530,105,922,2107,-95,1095,250,470,76,30,50
23540,106,560,1311,-261,636,341,431,78,32,50
23550,107,1054,784,886,75,624,399,78,32,50
23560,108,1812,2479,8375,-1716,1572,391,83,31,45
23570,109,-33,-1940,16635,-839,-875,-54,83,31,45
23580,110,-4663,1341,9724,-6237,-2230,-935,85,25,49
23590,111,-7767,-6961,-5742,-4111,-1487,-1843,85,25,49
23600,112,-10392,-15529,-821,-1818,-4634,-2741,76,34,52
23610,113,-1109,-19994,3786,660,1224,-2580,76,34,52
23620,114,11021,-17972,10872,-1318,1644,142,73,41,59
23630,115,4139,-12292,339,-732,381,670,73,41,59
23640,116,4977,-3406,-452,1733,1224,-67,66,40,54
23650,117,3237,-4619,1741,2194,2347,-755,66,40,54
23660,118,1265,-7183,894,604,362,-887,70,40,58
23670,119,-3317,-7680,1389,-261,-1000,-901,70,40,58
23680,120,-5411,-9062,-1273,-1046,1496,-1017,69,37,59
23690,121,-3684,-10444,-1551,420,2407,-862,69,37,59
23700,122,-2346,-9668,-141,1449,1273,-137,66,38,60
23710,123,-1160,-7461,758,1228,-219,495,66,38,60
23720,124,-1013,-4654,765,1159,255,652,66,38,56
23730,125,-725,-3909,417,1131,668,659,66,38,56
23740,126,-710,-3916,558,616,589,617,70,42,56
23750,127,-1000,-4002,437,-567,381,591,70,42,56
23760,128,-1301,-3564,-395,-1306,74,580,78,34,56
23770,129,-1870,-3351,-1180,-1141,-446,513,78,34,56
23780,130,-2269,-3692,-1238,-434,-704,380,73,37,57
23790,131,-2429,-2912,-173,634,-1052,196,73,37,57
23800,132,-2276,-2479,1205,1462,-565,52,70,36,62
23810,133,-1872,-1250,1932,1590,-297,-5,70,36,62
23820,134,-1977,311,2635,1392,-355,-193,73,37,51
23830,135,-1254,1355,2781,808,-379,-497,73,37,51
23840,136,-71,2230,3309,-44,-78,-835,77,31,45
23850,137,1320,4550,1662,-2184,479,-1179,77,31,45
23860,138,3488,5966,1600,-3290,801,-1252,76,34,50
23870,139,5064,5224,-1564,-2278,86,-877,76,34,50
23880,140,3600,6022,-1513,136,-314,-442,62,38,52
23890,141,2521,4439,478,758,-954,-388,62,38,52
23900,142,1515,2977,1316,636,-1166,-411,68,40,58
23910,143,906,2212,753,490,-1243,-403,68,40,58
23920,144,285,1513,207,311,-1155,-293,61,43,53
23930,145,-430,319,-533,385,-1211,6,61,43,53
23940,146,-2023,-224,2104,-116,-2400,369,65,43,55
23950,147,-4821,-2041,11334,698,1395,105,65,43,55
23960,148,-3576,-1034,20080,-2368,2345,1366,63,39,47
23970,149,6445,-10875,-6680,-2851,5410,3224,63,39,47
23980,150,10643,-30161,1,-6732,7407,4770,66,40,56
23990,151,-5800,-15218,6956,-675,-2239,2739,66,40,56
24000,152,-11167,-7838,2617,1176,292,295,76,38,72
24010,153,-10699,-4480,794,3414,-2506,-588,76,38,72
24020,154,-6889,-4008,68,2243,-2591,-28,81,35,75
24030,155,-3169,-4197,183,259,-1586,785,81,35,75
24040,156,-1635,-8157,3084,-2430,-875,845,82,38,64
24050,157,2117,-8917,-622,-363,-1332,849,82,38,64
24060,158,4563,-11391,259,938,-705,1194,83,35,63
24070,159,2562,-11747,-749,1300,-810,1102,83,35,63
24080,160,994,-7555,215,1572,-818,541,88,32,58
24090,161,431,-6619,526,1518,-920,-18,88,32,58
24100,162,-3,-6677,727,709,-1265,-409,81,35,47
24110,163,-422,-6405,240,-128,-1086,-679,81,35,47
24120,164,-512,-5947,-237,-899,-810,-818,87,29,51
24130,165,-323,-5568,-388,-1188,-466,-754,87,29,51
24140,166,-92,-5731,255,-935,-261,-587,78,30,52
24150,167,-52,-5880,1441,-653,-468,-427,78,30,52
24160,168,273,-5418,856,-326,-746,-319,80,32,54
24170,169,697,-4387,-689,-83,-1181,-223,80,32,54
24180,170,533,-3247,-859,188,-1252,-112,80,38,52
24190,171,96,-2832,-295,258,-1122,-48,80,38,52
24200,172,122,-1177,-402,700,-986,37,79,33,49
24210,173,64,-956,350,1102,-1008,114,79,33,49
24220,174,55,-362,508,1781,-934,219,78,40,48
24230,175,91,390,1352,2289,-978,376,78,40,48
24240,176,-1765,-6750,6912,763,151,528,75,29,43
24250,177,389,3155,1641,306,-502,573,75,29,43
24260,178,131,3628,1988,-82,-470,581,77,27,41
24270,179,325,4112,2013,-252,-75,544,77,27,41
24280,180,812,4091,1527,-146,633,679,82,28,40
24290,181,1473,3836,709,162,1088,814,82,28,40
24300,182,1316,3489,-114,671,1116,909,81,29,35
24310,183,849,1689,360,742,1047,840,81,29,35
24320,184,915,1294,66,299,948,728,84,28,36
24330,185,2083,1420,5615,-720,1117,709,84,28,36
24340,186,2708,158,4460,672,1185,394,83,21,45
24350,187,-922,65,13636,-2947,-1420,-289,83,21,45
24360,188,-2553,2170,10209,-7119,-1884,-732,85,19,41
24370,189,-9379,-13429,-4620,-3426,-2949,-2338,85,19,41
24380,190,-12772,-19510,-2974,-217,-2594,-3549,77,31,45
24390,191,-2451,-17359,1360,2679,-688,-2595,77,31,45
24400,192,8996,-17377,8927,-1195,1701,-180,77,35,47
24410,193,5806,-9367,-299,-146,2198,174,77,35,47
24420,194,4461,-1507,-720,1643,1703,-307,73,35,49
24430,195,3088,-3470,1551,1599,1398,-555,73,35,49
24440,196,884,-6637,969,-363,568,-632,77,37,49
24450,197,-2227,-9621,-1568,-1143,272,-742,77,37,49
24460,198,-4269,-9382,-1995,-595,1919,-1069,73,35,51
24470,199,-3786,-9170,-1539,1096,1411,-977,73,35,51
24480,200,-3159,-7490,820,1553,855,-697,70,40,60
24490,201,-1870,-5968,1282,977,990,-497,70,40,60
24500,202,-641,-5306,613,511,1074,-471,75,39,49
24510,203,-388,-4929,525,61,943,-490,75,39,49
24520,204,-462,-4740,248,-838,330,-476,72,40,52
24530,205,-1753,-4817,-492,-1445,-608,-355,72,40,52
24540,206,-2816,-4860,-573,-1132,-759,-286,70,44,54
24550,207,-3404,-4890,-175,16,-636,-233,70,44,54
24560,208,-2399,-4762,1062,1407,-279,-96,71,47,55
24570,209,-1788,-3372,2271,2055,-250,26,71,47,55
24580,210,-1441,-2356,2961,2389,-558,43,69,39,51
24590,211,-595,-1363,2376,2135,-699,3,69,39,51
24600,212,-867,1422,1904,1698,-784,-113,65,35,47
24610,213,-691,2598,2470,298,-392,-225,65,35,47
24620,214,550,4339,-1173,-1356,-456,-286,69,39,43
24630,215,633,5424,445,-1658,354,-285,69,39,43
24640,216,1162,6880,674,-2104,556,-385,67,41,41
24650,217,1313,6462,679,-1762,-175,-460,67,41,41
24660,218,1189,5911,827,-910,-456,-484,69,43,45
24670,219,972,3913,1154,-218,-221,-355,69,43,45
24680,220,1056,2365,609,-72,4,-335,64,42,54
24690,221,1381,1986,283,-100,7,-319,64,42,54
24700,222,1590,1577,-215,20,-218,-247,62,38,50
24710,223,371,661,800,225,-1174,-105,62,38,50
24720,224,-1493,-1793,3226,858,1687,-257,63,41,55
24730,225,-2341,420,19866,-1522,884,322,63,41,55
24740,226,10195,-6923,461,-5573,2303,1552,62,40,52
24750,227,12792,-19566,-1220,-2639,5837,2742,62,40,52
24760,228,-5050,-24074,-997,-4203,-201,2773,69,45,63
24770,229,-12140,-18219,9239,-566,1685,471,69,45,63
24780,230,-9763,-5857,591,3368,324,-370,75,39,71
24790,231,-7243,-5549,1795,3543,-1831,67,75,39,71
24800,232,-3755,-4382,1723,85,-1376,766,74,36,66
24810,233,-1683,-7020,1780,-2211,372,886,74,36,66
24820,234,1981,-8861,171,-867,214,843,74,34,60
24830,235,2630,-9702,2277,659,-1008,928,74,34,60
24840,236,999,-10609,587,920,-1024,710,76,34,64
24850,237,-590,-8845,89,878,-1064,300,76,34,64
24860,238,-571,-7274,-611,1445,-531,-125,77,37,63
24870,239,-222,-6389,-263,1838,-451,-367,77,37,63
24880,240,-229,-5867,233,1390,-363,-585,82,34,60
24890,241,-57,-5038,81,96,-115,-816,82,34,60
24900,242,-111,-4003,-226,-952,-253,-885,76,32,54
24910,243,-526,-4138,275,-1430,-386,-777,76,32,54
24920,244,-980,-4936,364,-1516,-449,-586,76,32,60
24930,245,-417,-5583,501,-792,-272,-342,76,32,60
24940,246,612,-5714,42,-199,129,-130,76,38,58
24950,247,1444,-4799,-667,453,259,-81,76,38,58
24960,248,1654,-3138,-798,1069,28,-43,72,36,56
24970,249,1093,-1562,-490,1379,-329,-8,72,36,56
24980,250,363,-755,336,1373,-746,32,73,37,51
24990,251,-56,-263,1168,1260,-884,136,73,37,51
25000,252,-474,-59,1188,1338,-741,308,75,31,53
25010,253,-933,-2,1720,1447,-757,539,75,31,53
25020,254,-1576,1011,2467,1204,-478,718,74,38,46
25030,255,-2323,1888,2930,468,294,762,74,38,46
25040,0,-1129,3979,647,-185,984,725,74,30,44
25050,1,-835,4107,1305,-325,888,711,74,30,44
25060,2,749,4095,1268,-383,1142,787,76,34,46
25070,3,1886,3348,-25,-223,811,862,76,34,46
25080,4,1880,3091,-75,-63,487,882,86,30,52
25090,5,1198,2330,154,-253,507,822,86,30,52
25100,6,1246,1706,825,-588,540,737,80,30,52
25110,7,826,2047,8950,-1270,810,670,80,30,52
25120,8,824,-1045,11429,107,-587,90,81,31,53
25130,9,-3160,263,9420,-4556,-1927,-799,81,31,53
25140,10,-7819,-976,1153,-5563,-167,-1693,88,30,52
25150,11,-11526,-16297,-3422,-1839,-2524,-3426,88,30,52
25160,12,-5138,-13839,-4797,630,-1530,-3773,76,34,64
25170,13,3566,-18969,5493,1602,-1239,-2361,76,34,64
25180,14,10431,-10988,6787,-306,2462,-325,71,41,59
25190,15,7182,-8555,-189,-443,1570,171,71,41,59
25200,16,2612,-3006,-445,1021,554,-34,71,39,61
25210,17,1100,-6787,873,1040,413,-310,71,39,61
25220,18,-1254,-9565,1636,982,392,-430,65,43,63
25230,19,-5393,-9186,-1477,475,1128,-479,65,43,63
25240,20,-4794,-9213,-2029,785,1052,-537,68,40,62
25250,21,-3124,-8806,-830,1309,165,-477,68,40,62
25260,22,-1962,-7448,670,1340,151,-438,67,43,61
25270,23,-567,-7315,901,975,745,-364,67,43,61
25280,24,525,-7022,214,692,1083,-290,66,42,56
25290,25,975,-6298,-341,423,1119,-251,66,42,56
25300,26,333,-5857,-650,265,882,-256,66,38,54
25310,27,-627,-5461,-547,296,610,-261,66,38,54
25320,28,-1642,-4674,-135,514,519,-258,64,38,58
25330,29,-2376,-4259,90,726,669,-201,64,38,58
25340,30,-2736,-4236,737,979,712,-127,67,41,53
25350,31,-2751,-4349,1203,1177,747,-86,67,41,53
25360,32,-2245,-4267,1475,931,580,-168,65,39,59
25370,33,-2227,-2670,1043,928,-26,-352,65,39,59
25380,34,-2361,-1332,1403,1441,-239,-474,68,38,54
25390,35,-1725,73,2313,1590,-200,-546,68,38,54
25400,36,-1070,1896,2724,920,-210,-558,66,40,54
25410,37,-668,3127,1893,-219,-444,-543,66,40,54
25420,38,5,4105,330,-1099,-306,-515,61,39,51
25430,39,693,4688,-797,-1371,70,-490,61,39,51
25440,40,1122,4973,-536,-1471,-51,-495,62,38,48
25450,41,734,4694,475,-1046,-179,-482,62,38,48
25460,42,802,4012,1105,-529,77,-424,63,41,51
25470,43,1323,2988,1032,-375,485,-361,63,41,51
25480,44,1443,2186,579,-410,542,-295,62,44,58
25490,45,1453,1478,-61,-105,350,-221,62,44,58
25500,46,260,305,4480,-680,-707,15,59,41,53
25510,47,-951,-1616,4419,1937,1478,-203,59,41,53
25520,48,-3204,-227,19130,-2125,1094,661,61,47,55
25530,49,10683,-4778,15,-4863,6884,1891,61,47,55
25540,50,14030,-18046,-2230,-2292,5181,2593,64,44,56
25550,51,-1351,-14731,-3360,-1600,-956,2442,64,44,56
25560,52,-10502,-14871,6894,429,2084,376,67,45,73
25570,53,-8681,-7535,2059,2240,1641,-814,67,45,73
25580,54,-7609,-7142,1913,2146,-131,-372,71,43,75
25590,55,-4559,-4883,1209,569,-16,409,71,43,75
25600,56,-2963,-6725,2135,-1358,847,553,74,40,74
25610,57,-499,-7900,-367,-578,625,453,74,40,74
25620,58,225,-9176,734,285,177,340,74,40,74
25630,59,-703,-9678,189,481,-357,140,74,40,74
25640,60,-2271,-9284,-518,932,-805,-134,75,39,75
25650,61,-2589,-7703,-63,1468,-701,-330,75,39,75
25660,62,-1796,-6398,392,1564,-708,-428,74,40,76
25670,63,-588,-6131,672,894,-656,-543,74,40,76
25680,64,-113,-5782,701,-342,-606,-592,73,41,63
25690,65,-219,-5574,734,-1294,-557,-540,73,41,63
25700,66,-691,-5984,803,-1217,-408,-346,70,42,70
25710,67,-708,-6414,728,-624,-468,-60,70,42,70
25720,68,-471,-5605,47,-9,-854,212,68,44,70
25730,69,-484,-4352,-350,682,-1144,336,68,44,70
25740,70,-9,-2995,-344,1228,-1333,439,71,41,65
25750,71,35,-2255,26,1493,-1158,508,71,41,65
25760,72,575,-1252,899,1211,-1022,643,72,40,64
25770,73,724,-849,1555,808,-794,757,72,40,64
25780,74,406,-156,1522,589,-949,875,74,42,60
25790,75,87,596,1862,558,-1101,986,74,42,60
25800,76,-399,1228,2171,375,-818,947,70,38,56
25810,77,-330,3128,617,11,-51,896,70,38,56
25820,78,-193,3550,1166,50,500,730,74,36,56
25830,79,1366,3916,1629,-55,881,624,74,36,56
25840,80,2148,3848,704,-274,630,595,78,36,56
25850,81,2583,2877,27,-373,135,579,78,36,56
25860,82,1882,2051,-236,-530,-23,580,74,36,56
25870,83,1179,1585,-468,-442,27,595,74,36,56
25880,84,550,1243,-449,-242,196,574,79,35,55
25890,85,138,869,-529,-99,219,513,79,35,55
25900,86,507,278,446,-48,480,452,77,33,57
25910,87,-23,456,8926,-165,951,387,77,33,57
25920,88,-248,-1982,14012,502,-80,-215,82,30,54
25930,89,-4520,786,14800,-7948,-2449,-1123,82,30,54
25940,90,-8161,-8513,-14169,-3255,-1866,-1824,81,31,59
25950,91,-11783,-19720,-2362,93,-2461,-3065,81,31,59
25960,92,-2146,-11974,2519,2809,-2676,-2318,82,38,70
25970,93,9350,-16029,8993,-669,409,-263,82,38,70
25980,94,7768,-10992,1394,-110,1485,729,72,38,60
25990,95,4296,-3761,-157,1288,1553,214,72,38,60
26000,96,2083,-3648,1982,1304,1305,-190,71,41,59
26010,97,129,-7392,2585,-221,462,-459,71,41,59
26020,98,-3649,-8628,-593,-464,459,-589,71,39,61
26030,99,-4715,-10843,-1608,-42,1382,-669,71,39,61
26040,100,-3447,-9961,-1018,1285,1106,-583,69,39,63
26050,101,-1883,-7952,749,1386,650,-272,69,39,63
26060,102,-975,-6526,1180,838,353,-32,74,40,64
26070,103,-409,-6181,811,361,483,70,74,40,64
26080,104,-269,-6150,272,135,714,144,71,41,61
26090,105,-461,-6005,-276,0,624,131,71,41,61
26100,106,-1305,-6134,-143,100,278,-22,65,39,63
26110,107,-2484,-6139,9,494,-35,-197,65,39,63
26120,108,-3112,-5282,566,1287,-246,-275,73,37,61
26130,109,-2146,-4838,364,1921,-92,-254,73,37,61
26140,110,-1686,-4293,945,2112,-533,-135,72,38,54
26150,111,-2360,-2002,2219,2174,-572,-219,72,38,54
26160,112,-1440,-1025,2067,1527,-515,-361,67,39,59
26170,113,-689,591,920,715,-313,-631,67,39,59
26180,114,-382,1883,43,-158,-339,-906,69,37,53
26190,115,-104,2875,598,-1063,-235,-1112,69,37,53
26200,116,589,4649,1756,-1870,35,-1223,68,38,48
26210,117,1391,4998,831,-1938,94,-1160,68,38,48
26220,118,1896,5374,-121,-957,-156,-911,59,39,51
26230,119,1456,4940,305,-34,-279,-720,59,39,51
26240,120,851,3623,818,113,-68,-602,62,48,56
26250,121,598,3064,686,-68,77,-524,62,48,56
26260,122,562,2628,642,-199,151,-466,60,44,52
26270,123,882,1978,276,-196,377,-433,60,44,52
26280,124,984,1243,-155,12,253,-373,54,50,58
26290,125,706,327,-367,50,91,-286,54,50,58
26300,126,-2521,-548,15822,-2475,269,-75,56,44,54
26310,127,-5320,-2262,14534,413,-461,58,56,44,54
26320,128,7503,-11391,9558,-7852,3465,1803,57,47,59
26330,129,17113,-17718,1496,-1462,9487,2614,57,47,59
26340,130,1767,-15068,-3915,-2561,-134,3055,63,45,71
26350,131,-10860,-10101,6644,260,702,1251,63,45,71
26360,132,-9114,-7426,3423,798,1754,-395,73,45,81
26370,133,-9564,-7203,136,1938,-752,-343,73,45,81
26380,134,-6285,-5705,612,869,-1459,316,69,39,79
26390,135,-2702,-5738,3123,-382,-99,703,69,39,79
26400,136,-345,-7745,849,-876,-407,592,73,43,75
26410,137,1297,-9313,863,20,-614,494,73,43,75
26420,138,1172,-10582,245,557,-396,350,69,45,79
26430,139,-507,-9881,426,817,-715,70,69,45,79
26440,140,-1608,-7785,361,1150,-943,-263,74,40,70
26450,141,-1319,-6858,420,1361,-1051,-435,74,40,70
26460,142,-711,-6420,412,1087,-1168,-543,69,41,71
26470,143,134,-6260,175,179,-972,-578,69,41,71
26480,144,377,-5806,378,-917,-681,-592,74,42,64
26490,145,236,-5520,687,-1405,-346,-516,74,42,64
26500,146,246,-5751,688,-1052,-229,-401,68,46,66
26510,147,109,-5907,627,-581,-485,-237,68,46,66
26520,148,1,-5166,164,-47,-683,-109,68,44,66
26530,149,-78,-3670,-473,666,-1018,-81,68,44,66
26540,150,5,-2513,35,900,-1259,-19,69,43,69
26550,151,-306,-1548,169,1148,-1084,93,69,43,69
26560,152,140,-466,616,1490,-811,284,65,43,63
26570,153,137,181,1050,1492,-1117,551,65,43,63
26580,154,-26,1313,1872,998,-977,840,61,41,59
26590,155,-1994,-7408,7217,-645,-324,855,61,41,59
26600,156,-819,4091,2681,-588,-282,821,69,43,57
26610,157,-652,4346,2724,-481,513,626,69,43,57
26620,158,694,4344,1668,-246,1111,576,74,42,54
26630,159,2139,4399,155,-39,819,630,74,42,54
26640,160,1953,3664,-127,247,421,691,70,42,56
26650,161,1276,2033,13,-163,400,684,70,42,56
26660,162,442,1303,-395,-115,270,612,71,41,59
26670,163,-81,1013,-363,35,253,542,71,41,59
26680,164,-150,772,-415,-34,533,463,80,38,60
26690,165,573,438,407,-212,855,413,80,38,60
26700,166,-334,-60,11801,-455,978,326,80,38,64
26710,167,-929,-2645,16935,-721,-342,-523,80,38,64
26720,168,-10961,-357,10190,-9777,668,-1544,80,32,66
26730,169,-9278,-18045,-5171,-2031,-5068,-2922,80,32,66
26740,170,-8567,-11215,-2920,2190,-3466,-3298,74,38,74
26750,171,-1171,-13736,7829,28,-393,-2504,74,38,74
26760,172,16939,-15448,7168,-950,2042,151,69,49,63
26770,173,9187,-10708,-166,107,2090,817,69,49,63
26780,174,3293,-4006,-1411,1222,1165,246,62,44,70
26790,175,1575,-3939,1271,912,1645,-213,62,44,70
26800,176,652,-8391,1280,-557,855,-465,66,44,68
26810,177,-2959,-9720,120,-371,857,-764,66,44,68
26820,178,-4631,-11072,-1419,71,964,-807,65,47,73
26830,179,-4665,-9796,-2432,1867,1057,-864,65,47,73
26840,180,-2862,-7566,341,2168,990,-603,64,48,70
26850,181,-1956,-5943,1189,1479,784,-171,64,48,70
26860,182,-1055,-5713,1309,919,763,105,62,46,66
26870,183,-794,-5789,488,372,742,253,62,46,66
26880,184,-1158,-5603,-114,256,463,247,60,44,66
26890,185,-1581,-5751,55,364,240,225,60,44,66
26900,186,-1598,-5708,441,647,229,227,66,46,66
26910,187,-1254,-4283,599,1085,-17,259,66,46,66
26920,188,-1055,-3580,774,1112,-382,401,67,41,63
26930,189,-1782,-1961,796,1118,-929,438,67,41,63
26940,190,-2023,-340,356,1331,-752,328,67,47,63
26950,191,-2003,725,-26,1270,-278,91,67,47,63
26960,192,-1466,1368,-27,299,-70,-254,66,46,56
26970,193,-1260,2340,671,-1349,204,-628,66,46,56
26980,194,-299,3006,1746,-2815,499,-935,66,38,56
26990,195,1186,4930,2291,-2794,298,-1108,66,38,56
27000,196,2590,5352,873,-1698,-125,-900,66,46,66
27010,197,2391,3908,-28,-165,-518,-607,66,46,66
27020,198,1583,2809,478,653,-769,-452,64,46,70
27030,199,847,2683,843,492,-775,-334,64,46,70
27040,200,558,2603,744,141,-623,-272,59,45,65
27050,201,588,2314,137,-32,-463,-231,59,45,65
27060,202,845,1995,-583,-44,-506,-207,59,47,67
27070,203,-687,55,10617,-1897,-1330,-5,59,47,67
27080,204,-1494,-1816,9003,1749,754,-227,59,49,65
27090,205,-2832,434,17630,-3645,777,753,59,49,65
27100,206,10762,-8556,-9119,-1687,6376,2083,62,50,68
27110,207,11197,-23086,-1045,-3791,3651,3448,62,50,68
27120,208,-6093,-16905,4820,-2129,-1295,2237,59,45,75
27130,209,-12668,-14285,5935,694,1835,243,59,45,75
27140,210,-10641,-4914,-638,4447,-1093,-164,72,42,82
27150,211,-6981,-3074,2277,2963,-1985,520,72,42,82
27160,212,-3135,-3803,1888,-711,-947,1077,71,43,77
27170,213,-1106,-7379,1202,-2108,99,984,71,43,77
27180,214,2868,-9089,1103,125,-522,1032,74,42,74
